{
  "datasetJSONCreationDateTime": "2024-12-18T15:34:06",
  "datasetJSONVersion": "1.1.0",
  "fileOID": "CDISCPILOT01.lb",
  "dbLastModifiedDateTime": "2012-04-04T22:16:21",
  "originator": "CDISC Data Exchange Standards Team",
  "sourceSystem": { "name": "SAS on X64_10PRO", "version": "9.0401M7" },
  "studyOID": "CDISCPILOT01",
  "metaDataVersionOID": "CDISC.SDTMIG.3.1.2",
  "metaDataRef": "define.xml",
  "itemGroupOID": "LB",
  "records": 59580,
  "name": "LB",
  "label": "Laboratory Tests Results",
  "columns": [
    {
      "itemOID": "LB.STUDYID",
      "name": "STUDYID",
      "label": "Study Identifier",
      "dataType": "string",
      "length": 12,
      "keySequence": 1
    },
    {
      "itemOID": "LB.DOMAIN",
      "name": "DOMAIN",
      "label": "Domain Abbreviation",
      "dataType": "string",
      "length": 2
    },
    {
      "itemOID": "LB.USUBJID",
      "name": "USUBJID",
      "label": "Unique Subject Identifier",
      "dataType": "string",
      "length": 11,
      "keySequence": 2
    },
    {
      "itemOID": "LB.LBSEQ",
      "name": "LBSEQ",
      "label": "Sequence Number",
      "dataType": "integer"
    },
    {
      "itemOID": "LB.LBTESTCD",
      "name": "LBTESTCD",
      "label": "Lab Test or Examination Short Name",
      "dataType": "string",
      "length": 7,
      "keySequence": 3
    },
    {
      "itemOID": "LB.LBTEST",
      "name": "LBTEST",
      "label": "Lab Test or Examination Name",
      "dataType": "string",
      "length": 200
    },
    {
      "itemOID": "LB.LBCAT",
      "name": "LBCAT",
      "label": "Category for Lab Test",
      "dataType": "string",
      "length": 10
    },
    {
      "itemOID": "LB.LBORRES",
      "name": "LBORRES",
      "label": "Result or Finding in Original Units",
      "dataType": "string",
      "length": 5
    },
    {
      "itemOID": "LB.LBORRESU",
      "name": "LBORRESU",
      "label": "Original Units",
      "dataType": "string",
      "length": 8
    },
    {
      "itemOID": "LB.LBORNRLO",
      "name": "LBORNRLO",
      "label": "Reference Range Lower Limit in Orig Unit",
      "dataType": "string",
      "length": 5
    },
    {
      "itemOID": "LB.LBORNRHI",
      "name": "LBORNRHI",
      "label": "Reference Range Upper Limit in Orig Unit",
      "dataType": "string",
      "length": 7
    },
    {
      "itemOID": "LB.LBSTRESC",
      "name": "LBSTRESC",
      "label": "Character Result/Finding in Std Format",
      "dataType": "string",
      "length": 8
    },
    {
      "itemOID": "LB.LBSTRESN",
      "name": "LBSTRESN",
      "label": "Numeric Result/Finding in Standard Units",
      "dataType": "float"
    },
    {
      "itemOID": "LB.LBSTRESU",
      "name": "LBSTRESU",
      "label": "Standard Units",
      "dataType": "string",
      "length": 8
    },
    {
      "itemOID": "LB.LBSTNRLO",
      "name": "LBSTNRLO",
      "label": "Reference Range Lower Limit-Std Units",
      "dataType": "integer"
    },
    {
      "itemOID": "LB.LBSTNRHI",
      "name": "LBSTNRHI",
      "label": "Reference Range Upper Limit-Std Units",
      "dataType": "integer"
    },
    {
      "itemOID": "LB.LBNRIND",
      "name": "LBNRIND",
      "label": "Reference Range Indicator",
      "dataType": "string",
      "length": 200
    },
    {
      "itemOID": "LB.LBBLFL",
      "name": "LBBLFL",
      "label": "Baseline Flag",
      "dataType": "string",
      "length": 1
    },
    {
      "itemOID": "LB.VISITNUM",
      "name": "VISITNUM",
      "label": "Visit Number",
      "dataType": "decimal",
      "displayFormat": "8.1",
      "keySequence": 4
    },
    {
      "itemOID": "LB.VISIT",
      "name": "VISIT",
      "label": "Visit Name",
      "dataType": "string",
      "length": 19
    },
    {
      "itemOID": "LB.VISITDY",
      "name": "VISITDY",
      "label": "Planned Study Day of Visit",
      "dataType": "integer"
    },
    {
      "itemOID": "LB.LBDTC",
      "name": "LBDTC",
      "label": "Date/Time of Specimen Collection",
      "dataType": "datetime"
    },
    {
      "itemOID": "LB.LBDY",
      "name": "LBDY",
      "label": "Study Day of Specimen Collection",
      "dataType": "integer"
    }
  ],
  "rows": [
    [
      "CDISCPILOT01",
      "LB",
      "01-701-1015",
      1,
      "ALB",
      "Albumin",
      "CHEMISTRY",
      "3.8",
      "g/dL",
      "3.3",
      "4.9",
      "38",
      38,
      "g/L",
      33,
      49,
      "NORMAL",
      "Y",
      1,
      "SCREENING 1",
      -7,
      "2013-12-26T14:45",
      -7
    ],
    [
      "CDISCPILOT01",
      "LB",
      "01-701-1015",
      39,
      "ALB",
      "Albumin",
      "CHEMISTRY",
      "3.9",
      "g/dL",
      "3.3",
      "4.9",
      "39",
      39,
      "g/L",
      33,
      49,
      "NORMAL",
      "",
      4,
      "WEEK 2",
      14,
      "2014-01-16T13:17",
      15
    ],
    [
      "CDISCPILOT01",
      "LB",
      "01-701-1015",
      74,
      "ALB",
      "Albumin",
      "CHEMISTRY",
      "3.8",
      "g/dL",
      "3.3",
      "4.9",
      "38",
      38,
      "g/L",
      33,
      49,
      "NORMAL",
      "",
      5,
      "WEEK 4",
      28,
      "2014-01-30T08:50",
      29
    ],
    [
      "CDISCPILOT01",
      "LB",
      "01-701-1015",
      104,
      "ALB",
      "Albumin",
      "CHEMISTRY",
      "3.7",
      "g/dL",
      "3.3",
      "4.9",
      "37",
      37,
      "g/L",
      33,
      49,
      "NORMAL",
      "",
      7,
      "WEEK 6",
      42,
      "2014-02-12T12:56",
      42
    ],
    [
      "CDISCPILOT01",
      "LB",
      "01-701-1015",
      134,
      "ALB",
      "Albumin",
      "CHEMISTRY",
      "3.8",
      "g/dL",
      "3.3",
      "4.9",
      "38",
      38,
      "g/L",
      33,
      49,
      "NORMAL",
      "",
      8,
      "WEEK 8",
      56,
      "2014-03-05T12:25",
      63
    ],
    [
      "CDISCPILOT01",
      "LB",
      "01-701-1015",
      164,
      "ALB",
      "Albumin",
      "CHEMISTRY",
      "3.8",
      "g/dL",
      "3.3",
      "4.9",
      "38",
      38,
      "g/L",
      33,
      49,
      "NORMAL",
      "",
      9,
      "WEEK 12",
      84,
      "2014-03-26T15:15",
      84
    ],
    [
      "CDISCPILOT01",
      "LB",
      "01-701-1015",
      199,
      "ALB",
      "Albumin",
      "CHEMISTRY",
      "3.7",
      "g/dL",
      "3.3",
      "4.9",
      "37",
      37,
      "g/L",
      33,
      49,
      "NORMAL",
      "",
      10,
      "WEEK 16",
      112,
      "2014-05-07T11:21",
      126
    ],
    [
      "CDISCPILOT01",
      "LB",
      "01-701-1015",
      229,
      "ALB",
      "Albumin",
      "CHEMISTRY",
      "3.7",
      "g/dL",
      "3.3",
      "4.9",
      "37",
      37,
      "g/L",
      33,
      49,
      "NORMAL",
      "",
      11,
      "WEEK 20",
      140,
      "2014-05-21T10:58",
      140
    ],
    [
      "CDISCPILOT01",
      "LB",
      "01-701-1015",
      259,
      "ALB",
      "Albumin",
      "CHEMISTRY",
      "3.8",
      "g/dL",
      "3.3",
      "4.9",
      "38",
      38,
      "g/L",
      33,
      49,
      "NORMAL",
      "",
      12,
      "WEEK 24",
      168,
      "2014-06-18T13:00",
      168
    ],
    [
      "CDISCPILOT01",
      "LB",
      "01-701-1015",
      294,
      "ALB",
      "Albumin",
      "CHEMISTRY",
      "3.8",
      "g/dL",
      "3.3",
      "4.9",
      "38",
      38,
      "g/L",
      33,
      49,
      "NORMAL",
      "",
      13,
      "WEEK 26",
      182,
      "2014-07-02T11:45",
      182
    ],
    [
      "CDISCPILOT01",
      "LB",
      "01-701-1015",
      2,
      "ALP",
      "Alkaline Phosphatase",
      "CHEMISTRY",
      "34",
      "U/L",
      "35",
      "115",
      "34",
      34,
      "U/L",
      35,
      115,
      "LOW",
      "Y",
      1,
      "SCREENING 1",
      -7,
      "2013-12-26T14:45",
      -7
    ],
    [
      "CDISCPILOT01",
      "LB",
      "01-701-1015",
      40,
      "ALP",
      "Alkaline Phosphatase",
      "CHEMISTRY",
      "50",
      "U/L",
      "35",
      "115",
      "50",
      50,
      "U/L",
      35,
      115,
      "NORMAL",
      "",
      4,
      "WEEK 2",
      14,
      "2014-01-16T13:17",
      15
    ],
    [
      "CDISCPILOT01",
      "LB",
      "01-701-1015",
      75,
      "ALP",
      "Alkaline Phosphatase",
      "CHEMISTRY",
      "41",
      "U/L",
      "35",
      "115",
      "41",
      41,
      "U/L",
      35,
      115,
      "NORMAL",
      "",
      5,
      "WEEK 4",
      28,
      "2014-01-30T08:50",
      29
    ],
    [
      "CDISCPILOT01",
      "LB",
      "01-701-1015",
      105,
      "ALP",
      "Alkaline Phosphatase",
      "CHEMISTRY",
      "43",
      "U/L",
      "35",
      "115",
      "43",
      43,
      "U/L",
      35,
      115,
      "NORMAL",
      "",
      7,
      "WEEK 6",
      42,
      "2014-02-12T12:56",
      42
    ],
    [
      "CDISCPILOT01",
      "LB",
      "01-701-1015",
      135,
      "ALP",
      "Alkaline Phosphatase",
      "CHEMISTRY",
      "47",
      "U/L",
      "35",
      "115",
      "47",
      47,
      "U/L",
      35,
      115,
      "NORMAL",
      "",
      8,
      "WEEK 8",
      56,
      "2014-03-05T12:25",
      63
    ],
    [
      "CDISCPILOT01",
      "LB",
      "01-701-1015",
      165,
      "ALP",
      "Alkaline Phosphatase",
      "CHEMISTRY",
      "53",
      "U/L",
      "35",
      "115",
      "53",
      53,
      "U/L",
      35,
      115,
      "NORMAL",
      "",
      9,
      "WEEK 12",
      84,
      "2014-03-26T15:15",
      84
    ],
    [
      "CDISCPILOT01",
      "LB",
      "01-701-1015",
      200,
      "ALP",
      "Alkaline Phosphatase",
      "CHEMISTRY",
      "41",
      "U/L",
      "35",
      "115",
      "41",
      41,
      "U/L",
      35,
      115,
      "NORMAL",
      "",
      10,
      "WEEK 16",
      112,
      "2014-05-07T11:21",
      126
    ],
    [
      "CDISCPILOT01",
      "LB",
      "01-701-1015",
      230,
      "ALP",
      "Alkaline Phosphatase",
      "CHEMISTRY",
      "45",
      "U/L",
      "35",
      "115",
      "45",
      45,
      "U/L",
      35,
      115,
      "NORMAL",
      "",
      11,
      "WEEK 20",
      140,
      "2014-05-21T10:58",
      140
    ],
    [
      "CDISCPILOT01",
      "LB",
      "01-701-1015",
      260,
      "ALP",
      "Alkaline Phosphatase",
      "CHEMISTRY",
      "46",
      "U/L",
      "35",
      "115",
      "46",
      46,
      "U/L",
      35,
      115,
      "NORMAL",
      "",
      12,
      "WEEK 24",
      168,
      "2014-06-18T13:00",
      168
    ],
    [
      "CDISCPILOT01",
      "LB",
      "01-701-1015",
      295,
      "ALP",
      "Alkaline Phosphatase",
      "CHEMISTRY",
      "44",
      "U/L",
      "35",
      "115",
      "44",
      44,
      "U/L",
      35,
      115,
      "NORMAL",
      "",
      13,
      "WEEK 26",
      182,
      "2014-07-02T11:45",
      182
    ],
    [
      "CDISCPILOT01",
      "LB",
      "01-701-1015",
      3,
      "ALT",
      "Alanine Aminotransferase",
      "CHEMISTRY",
      "27",
      "U/L",
      "6",
      "34",
      "27",
      27,
      "U/L",
      6,
      34,
      "NORMAL",
      "Y",
      1,
      "SCREENING 1",
      -7,
      "2013-12-26T14:45",
      -7
    ],
    [
      "CDISCPILOT01",
      "LB",
      "01-701-1015",
      41,
      "ALT",
      "Alanine Aminotransferase",
      "CHEMISTRY",
      "41",
      "U/L",
      "6",
      "34",
      "41",
      41,
      "U/L",
      6,
      34,
      "HIGH",
      "",
      4,
      "WEEK 2",
      14,
      "2014-01-16T13:17",
      15
    ],
    [
      "CDISCPILOT01",
      "LB",
      "01-701-1015",
      76,
      "ALT",
      "Alanine Aminotransferase",
      "CHEMISTRY",
      "18",
      "U/L",
      "6",
      "34",
      "18",
      18,
      "U/L",
      6,
      34,
      "NORMAL",
      "",
      5,
      "WEEK 4",
      28,
      "2014-01-30T08:50",
      29
    ],
    [
      "CDISCPILOT01",
      "LB",
      "01-701-1015",
      106,
      "ALT",
      "Alanine Aminotransferase",
      "CHEMISTRY",
      "26",
      "U/L",
      "6",
      "34",
      "26",
      26,
      "U/L",
      6,
      34,
      "NORMAL",
      "",
      7,
      "WEEK 6",
      42,
      "2014-02-12T12:56",
      42
    ],
    [
      "CDISCPILOT01",
      "LB",
      "01-701-1015",
      136,
      "ALT",
      "Alanine Aminotransferase",
      "CHEMISTRY",
      "22",
      "U/L",
      "6",
      "34",
      "22",
      22,
      "U/L",
      6,
      34,
      "NORMAL",
      "",
      8,
      "WEEK 8",
      56,
      "2014-03-05T12:25",
      63
    ],
    [
      "CDISCPILOT01",
      "LB",
      "01-701-1015",
      166,
      "ALT",
      "Alanine Aminotransferase",
      "CHEMISTRY",
      "27",
      "U/L",
      "6",
      "34",
      "27",
      27,
      "U/L",
      6,
      34,
      "NORMAL",
      "",
      9,
      "WEEK 12",
      84,
      "2014-03-26T15:15",
      84
    ],
    [
      "CDISCPILOT01",
      "LB",
      "01-701-1015",
      201,
      "ALT",
      "Alanine Aminotransferase",
      "CHEMISTRY",
      "17",
      "U/L",
      "6",
      "34",
      "17",
      17,
      "U/L",
      6,
      34,
      "NORMAL",
      "",
      10,
      "WEEK 16",
      112,
      "2014-05-07T11:21",
      126
    ],
    [
      "CDISCPILOT01",
      "LB",
      "01-701-1015",
      231,
      "ALT",
      "Alanine Aminotransferase",
      "CHEMISTRY",
      "21",
      "U/L",
      "6",
      "34",
      "21",
      21,
      "U/L",
      6,
      34,
      "NORMAL",
      "",
      11,
      "WEEK 20",
      140,
      "2014-05-21T10:58",
      140
    ],
    [
      "CDISCPILOT01",
      "LB",
      "01-701-1015",
      261,
      "ALT",
      "Alanine Aminotransferase",
      "CHEMISTRY",
      "23",
      "U/L",
      "6",
      "34",
      "23",
      23,
      "U/L",
      6,
      34,
      "NORMAL",
      "",
      12,
      "WEEK 24",
      168,
      "2014-06-18T13:00",
      168
    ],
    [
      "CDISCPILOT01",
      "LB",
      "01-701-1015",
      296,
      "ALT",
      "Alanine Aminotransferase",
      "CHEMISTRY",
      "23",
      "U/L",
      "6",
      "34",
      "23",
      23,
      "U/L",
      6,
      34,
      "NORMAL",
      "",
      13,
      "WEEK 26",
      182,
      "2014-07-02T11:45",
      182
    ],
    [
      "CDISCPILOT01",
      "LB",
      "01-701-1015",
      4,
      "ANISO",
      "Anisocytes",
      "HEMATOLOGY",
      "1",
      "NO UNITS",
      "",
      "",
      "1",
      1,
      "",
      null,
      null,
      "ABNORMAL",
      "Y",
      1,
      "SCREENING 1",
      -7,
      "2013-12-26T14:45",
      -7
    ],
    [
      "CDISCPILOT01",
      "LB",
      "01-701-1015",
      5,
      "AST",
      "Aspartate Aminotransferase",
      "CHEMISTRY",
      "40",
      "U/L",
      "9",
      "34",
      "40",
      40,
      "U/L",
      9,
      34,
      "HIGH",
      "Y",
      1,
      "SCREENING 1",
      -7,
      "2013-12-26T14:45",
      -7
    ],
    [
      "CDISCPILOT01",
      "LB",
      "01-701-1015",
      42,
      "AST",
      "Aspartate Aminotransferase",
      "CHEMISTRY",
      "33",
      "U/L",
      "9",
      "34",
      "33",
      33,
      "U/L",
      9,
      34,
      "NORMAL",
      "",
      4,
      "WEEK 2",
      14,
      "2014-01-16T13:17",
      15
    ],
    [
      "CDISCPILOT01",
      "LB",
      "01-701-1015",
      77,
      "AST",
      "Aspartate Aminotransferase",
      "CHEMISTRY",
      "21",
      "U/L",
      "9",
      "34",
      "21",
      21,
      "U/L",
      9,
      34,
      "NORMAL",
      "",
      5,
      "WEEK 4",
      28,
      "2014-01-30T08:50",
      29
    ],
    [
      "CDISCPILOT01",
      "LB",
      "01-701-1015",
      107,
      "AST",
      "Aspartate Aminotransferase",
      "CHEMISTRY",
      "26",
      "U/L",
      "9",
      "34",
      "26",
      26,
      "U/L",
      9,
      34,
      "NORMAL",
      "",
      7,
      "WEEK 6",
      42,
      "2014-02-12T12:56",
      42
    ],
    [
      "CDISCPILOT01",
      "LB",
      "01-701-1015",
      137,
      "AST",
      "Aspartate Aminotransferase",
      "CHEMISTRY",
      "21",
      "U/L",
      "9",
      "34",
      "21",
      21,
      "U/L",
      9,
      34,
      "NORMAL",
      "",
      8,
      "WEEK 8",
      56,
      "2014-03-05T12:25",
      63
    ],
    [
      "CDISCPILOT01",
      "LB",
      "01-701-1015",
      167,
      "AST",
      "Aspartate Aminotransferase",
      "CHEMISTRY",
      "22",
      "U/L",
      "9",
      "34",
      "22",
      22,
      "U/L",
      9,
      34,
      "NORMAL",
      "",
      9,
      "WEEK 12",
      84,
      "2014-03-26T15:15",
      84
    ],
    [
      "CDISCPILOT01",
      "LB",
      "01-701-1015",
      202,
      "AST",
      "Aspartate Aminotransferase",
      "CHEMISTRY",
      "23",
      "U/L",
      "9",
      "34",
      "23",
      23,
      "U/L",
      9,
      34,
      "NORMAL",
      "",
      10,
      "WEEK 16",
      112,
      "2014-05-07T11:21",
      126
    ],
    [
      "CDISCPILOT01",
      "LB",
      "01-701-1015",
      232,
      "AST",
      "Aspartate Aminotransferase",
      "CHEMISTRY",
      "19",
      "U/L",
      "9",
      "34",
      "19",
      19,
      "U/L",
      9,
      34,
      "NORMAL",
      "",
      11,
      "WEEK 20",
      140,
      "2014-05-21T10:58",
      140
    ],
    [
      "CDISCPILOT01",
      "LB",
      "01-701-1015",
      262,
      "AST",
      "Aspartate Aminotransferase",
      "CHEMISTRY",
      "23",
      "U/L",
      "9",
      "34",
      "23",
      23,
      "U/L",
      9,
      34,
      "NORMAL",
      "",
      12,
      "WEEK 24",
      168,
      "2014-06-18T13:00",
      168
    ],
    [
      "CDISCPILOT01",
      "LB",
      "01-701-1015",
      297,
      "AST",
      "Aspartate Aminotransferase",
      "CHEMISTRY",
      "19",
      "U/L",
      "9",
      "34",
      "19",
      19,
      "U/L",
      9,
      34,
      "NORMAL",
      "",
      13,
      "WEEK 26",
      182,
      "2014-07-02T11:45",
      182
    ],
    [
      "CDISCPILOT01",
      "LB",
      "01-701-1015",
      6,
      "BASO",
      "Basophils",
      "HEMATOLOGY",
      "0.05",
      "THOU/uL",
      "0",
      "0.2",
      "0.05",
      0.05,
      "GI/L",
      0,
      0.2,
      "NORMAL",
      "Y",
      1,
      "SCREENING 1",
      -7,
      "2013-12-26T14:45",
      -7
    ],
    [
      "CDISCPILOT01",
      "LB",
      "01-701-1015",
      43,
      "BASO",
      "Basophils",
      "HEMATOLOGY",
      "0.03",
      "THOU/uL",
      "0",
      "0.2",
      "0.03",
      0.03,
      "GI/L",
      0,
      0.2,
      "NORMAL",
      "",
      4,
      "WEEK 2",
      14,
      "2014-01-16T13:17",
      15
    ],
    [
      "CDISCPILOT01",
      "LB",
      "01-701-1015",
      78,
      "BASO",
      "Basophils",
      "HEMATOLOGY",
      "0.02",
      "THOU/uL",
      "0",
      "0.2",
      "0.02",
      0.02,
      "GI/L",
      0,
      0.2,
      "NORMAL",
      "",
      5,
      "WEEK 4",
      28,
      "2014-01-30T08:50",
      29
    ],
    [
      "CDISCPILOT01",
      "LB",
      "01-701-1015",
      108,
      "BASO",
      "Basophils",
      "HEMATOLOGY",
      "0.04",
      "THOU/uL",
      "0",
      "0.2",
      "0.04",
      0.04,
      "GI/L",
      0,
      0.2,
      "NORMAL",
      "",
      7,
      "WEEK 6",
      42,
      "2014-02-12T12:56",
      42
    ],
    [
      "CDISCPILOT01",
      "LB",
      "01-701-1015",
      138,
      "BASO",
      "Basophils",
      "HEMATOLOGY",
      "0.05",
      "THOU/uL",
      "0",
      "0.2",
      "0.05",
      0.05,
      "GI/L",
      0,
      0.2,
      "NORMAL",
      "",
      8,
      "WEEK 8",
      56,
      "2014-03-05T12:25",
      63
    ],
    [
      "CDISCPILOT01",
      "LB",
      "01-701-1015",
      168,
      "BASO",
      "Basophils",
      "HEMATOLOGY",
      "0.04",
      "THOU/uL",
      "0",
      "0.2",
      "0.04",
      0.04,
      "GI/L",
      0,
      0.2,
      "NORMAL",
      "",
      9,
      "WEEK 12",
      84,
      "2014-03-26T15:15",
      84
    ],
    [
      "CDISCPILOT01",
      "LB",
      "01-701-1015",
      203,
      "BASO",
      "Basophils",
      "HEMATOLOGY",
      "0.03",
      "THOU/uL",
      "0",
      "0.2",
      "0.03",
      0.03,
      "GI/L",
      0,
      0.2,
      "NORMAL",
      "",
      10,
      "WEEK 16",
      112,
      "2014-05-07T11:21",
      126
    ],
    [
      "CDISCPILOT01",
      "LB",
      "01-701-1015",
      233,
      "BASO",
      "Basophils",
      "HEMATOLOGY",
      "0.03",
      "THOU/uL",
      "0",
      "0.2",
      "0.03",
      0.03,
      "GI/L",
      0,
      0.2,
      "NORMAL",
      "",
      11,
      "WEEK 20",
      140,
      "2014-05-21T10:58",
      140
    ],
    [
      "CDISCPILOT01",
      "LB",
      "01-701-1015",
      263,
      "BASO",
      "Basophils",
      "HEMATOLOGY",
      "0.04",
      "THOU/uL",
      "0",
      "0.2",
      "0.04",
      0.04,
      "GI/L",
      0,
      0.2,
      "NORMAL",
      "",
      12,
      "WEEK 24",
      168,
      "2014-06-18T13:00",
      168
    ],
    [
      "CDISCPILOT01",
      "LB",
      "01-701-1015",
      298,
      "BASO",
      "Basophils",
      "HEMATOLOGY",
      "0.03",
      "THOU/uL",
      "0",
      "0.2",
      "0.03",
      0.03,
      "GI/L",
      0,
      0.2,
      "NORMAL",
      "",
      13,
      "WEEK 26",
      182,
      "2014-07-02T11:45",
      182
    ],
    [
      "CDISCPILOT01",
      "LB",
      "01-701-1015",
      7,
      "BILI",
      "Bilirubin",
      "CHEMISTRY",
      "0.6",
      "mg/dL",
      "0.2",
      "1.2",
      "10.26",
      10.26,
      "umol/L",
      3,
      21,
      "NORMAL",
      "Y",
      1,
      "SCREENING 1",
      -7,
      "2013-12-26T14:45",
      -7
    ],
    [
      "CDISCPILOT01",
      "LB",
      "01-701-1015",
      44,
      "BILI",
      "Bilirubin",
      "CHEMISTRY",
      "0.5",
      "mg/dL",
      "0.2",
      "1.2",
      "8.55",
      8.55,
      "umol/L",
      3,
      21,
      "NORMAL",
      "",
      4,
      "WEEK 2",
      14,
      "2014-01-16T13:17",
      15
    ],
    [
      "CDISCPILOT01",
      "LB",
      "01-701-1015",
      79,
      "BILI",
      "Bilirubin",
      "CHEMISTRY",
      "0.4",
      "mg/dL",
      "0.2",
      "1.2",
      "6.84",
      6.84,
      "umol/L",
      3,
      21,
      "NORMAL",
      "",
      5,
      "WEEK 4",
      28,
      "2014-01-30T08:50",
      29
    ],
    [
      "CDISCPILOT01",
      "LB",
      "01-701-1015",
      109,
      "BILI",
      "Bilirubin",
      "CHEMISTRY",
      "0.3",
      "mg/dL",
      "0.2",
      "1.2",
      "5.13",
      5.13,
      "umol/L",
      3,
      21,
      "NORMAL",
      "",
      7,
      "WEEK 6",
      42,
      "2014-02-12T12:56",
      42
    ],
    [
      "CDISCPILOT01",
      "LB",
      "01-701-1015",
      139,
      "BILI",
      "Bilirubin",
      "CHEMISTRY",
      "0.5",
      "mg/dL",
      "0.2",
      "1.2",
      "8.55",
      8.55,
      "umol/L",
      3,
      21,
      "NORMAL",
      "",
      8,
      "WEEK 8",
      56,
      "2014-03-05T12:25",
      63
    ],
    [
      "CDISCPILOT01",
      "LB",
      "01-701-1015",
      169,
      "BILI",
      "Bilirubin",
      "CHEMISTRY",
      "0.4",
      "mg/dL",
      "0.2",
      "1.2",
      "6.84",
      6.84,
      "umol/L",
      3,
      21,
      "NORMAL",
      "",
      9,
      "WEEK 12",
      84,
      "2014-03-26T15:15",
      84
    ],
    [
      "CDISCPILOT01",
      "LB",
      "01-701-1015",
      204,
      "BILI",
      "Bilirubin",
      "CHEMISTRY",
      "0.4",
      "mg/dL",
      "0.2",
      "1.2",
      "6.84",
      6.84,
      "umol/L",
      3,
      21,
      "NORMAL",
      "",
      10,
      "WEEK 16",
      112,
      "2014-05-07T11:21",
      126
    ],
    [
      "CDISCPILOT01",
      "LB",
      "01-701-1015",
      234,
      "BILI",
      "Bilirubin",
      "CHEMISTRY",
      "0.4",
      "mg/dL",
      "0.2",
      "1.2",
      "6.84",
      6.84,
      "umol/L",
      3,
      21,
      "NORMAL",
      "",
      11,
      "WEEK 20",
      140,
      "2014-05-21T10:58",
      140
    ],
    [
      "CDISCPILOT01",
      "LB",
      "01-701-1015",
      264,
      "BILI",
      "Bilirubin",
      "CHEMISTRY",
      "0.4",
      "mg/dL",
      "0.2",
      "1.2",
      "6.84",
      6.84,
      "umol/L",
      3,
      21,
      "NORMAL",
      "",
      12,
      "WEEK 24",
      168,
      "2014-06-18T13:00",
      168
    ],
    [
      "CDISCPILOT01",
      "LB",
      "01-701-1015",
      299,
      "BILI",
      "Bilirubin",
      "CHEMISTRY",
      "0.3",
      "mg/dL",
      "0.2",
      "1.2",
      "5.13",
      5.13,
      "umol/L",
      3,
      21,
      "NORMAL",
      "",
      13,
      "WEEK 26",
      182,
      "2014-07-02T11:45",
      182
    ],
    [
      "CDISCPILOT01",
      "LB",
      "01-701-1015",
      8,
      "BUN",
      "Blood Urea Nitrogen",
      "CHEMISTRY",
      "10",
      "mg/dL",
      "4",
      "24",
      "3.57",
      3.57,
      "mmol/L",
      1.4,
      8.6,
      "NORMAL",
      "Y",
      1,
      "SCREENING 1",
      -7,
      "2013-12-26T14:45",
      -7
    ],
    [
      "CDISCPILOT01",
      "LB",
      "01-701-1015",
      45,
      "BUN",
      "Blood Urea Nitrogen",
      "CHEMISTRY",
      "10",
      "mg/dL",
      "4",
      "24",
      "3.57",
      3.57,
      "mmol/L",
      1.4,
      8.6,
      "NORMAL",
      "",
      4,
      "WEEK 2",
      14,
      "2014-01-16T13:17",
      15
    ],
    [
      "CDISCPILOT01",
      "LB",
      "01-701-1015",
      80,
      "BUN",
      "Blood Urea Nitrogen",
      "CHEMISTRY",
      "8",
      "mg/dL",
      "4",
      "24",
      "2.856",
      2.856,
      "mmol/L",
      1.4,
      8.6,
      "NORMAL",
      "",
      5,
      "WEEK 4",
      28,
      "2014-01-30T08:50",
      29
    ],
    [
      "CDISCPILOT01",
      "LB",
      "01-701-1015",
      110,
      "BUN",
      "Blood Urea Nitrogen",
      "CHEMISTRY",
      "12",
      "mg/dL",
      "4",
      "24",
      "4.284",
      4.284,
      "mmol/L",
      1.4,
      8.6,
      "NORMAL",
      "",
      7,
      "WEEK 6",
      42,
      "2014-02-12T12:56",
      42
    ],
    [
      "CDISCPILOT01",
      "LB",
      "01-701-1015",
      140,
      "BUN",
      "Blood Urea Nitrogen",
      "CHEMISTRY",
      "11",
      "mg/dL",
      "4",
      "24",
      "3.927",
      3.927,
      "mmol/L",
      1.4,
      8.6,
      "NORMAL",
      "",
      8,
      "WEEK 8",
      56,
      "2014-03-05T12:25",
      63
    ],
    [
      "CDISCPILOT01",
      "LB",
      "01-701-1015",
      170,
      "BUN",
      "Blood Urea Nitrogen",
      "CHEMISTRY",
      "10",
      "mg/dL",
      "4",
      "24",
      "3.57",
      3.57,
      "mmol/L",
      1.4,
      8.6,
      "NORMAL",
      "",
      9,
      "WEEK 12",
      84,
      "2014-03-26T15:15",
      84
    ],
    [
      "CDISCPILOT01",
      "LB",
      "01-701-1015",
      205,
      "BUN",
      "Blood Urea Nitrogen",
      "CHEMISTRY",
      "10",
      "mg/dL",
      "4",
      "24",
      "3.57",
      3.57,
      "mmol/L",
      1.4,
      8.6,
      "NORMAL",
      "",
      10,
      "WEEK 16",
      112,
      "2014-05-07T11:21",
      126
    ],
    [
      "CDISCPILOT01",
      "LB",
      "01-701-1015",
      235,
      "BUN",
      "Blood Urea Nitrogen",
      "CHEMISTRY",
      "11",
      "mg/dL",
      "4",
      "24",
      "3.927",
      3.927,
      "mmol/L",
      1.4,
      8.6,
      "NORMAL",
      "",
      11,
      "WEEK 20",
      140,
      "2014-05-21T10:58",
      140
    ],
    [
      "CDISCPILOT01",
      "LB",
      "01-701-1015",
      265,
      "BUN",
      "Blood Urea Nitrogen",
      "CHEMISTRY",
      "12",
      "mg/dL",
      "4",
      "24",
      "4.284",
      4.284,
      "mmol/L",
      1.4,
      8.6,
      "NORMAL",
      "",
      12,
      "WEEK 24",
      168,
      "2014-06-18T13:00",
      168
    ],
    [
      "CDISCPILOT01",
      "LB",
      "01-701-1015",
      300,
      "BUN",
      "Blood Urea Nitrogen",
      "CHEMISTRY",
      "11",
      "mg/dL",
      "4",
      "24",
      "3.927",
      3.927,
      "mmol/L",
      1.4,
      8.6,
      "NORMAL",
      "",
      13,
      "WEEK 26",
      182,
      "2014-07-02T11:45",
      182
    ],
    [
      "CDISCPILOT01",
      "LB",
      "01-701-1015",
      9,
      "CA",
      "Calcium",
      "CHEMISTRY",
      "8.8",
      "mg/dL",
      "8.4",
      "10.3",
      "2.1956",
      2.1956,
      "mmol/L",
      2.1,
      2.57,
      "NORMAL",
      "Y",
      1,
      "SCREENING 1",
      -7,
      "2013-12-26T14:45",
      -7
    ],
    [
      "CDISCPILOT01",
      "LB",
      "01-701-1015",
      46,
      "CA",
      "Calcium",
      "CHEMISTRY",
      "9.4",
      "mg/dL",
      "8.4",
      "10.3",
      "2.3453",
      2.3453,
      "mmol/L",
      2.1,
      2.57,
      "NORMAL",
      "",
      4,
      "WEEK 2",
      14,
      "2014-01-16T13:17",
      15
    ],
    [
      "CDISCPILOT01",
      "LB",
      "01-701-1015",
      81,
      "CA",
      "Calcium",
      "CHEMISTRY",
      "9.1",
      "mg/dL",
      "8.4",
      "10.3",
      "2.27045",
      2.27045,
      "mmol/L",
      2.1,
      2.57,
      "NORMAL",
      "",
      5,
      "WEEK 4",
      28,
      "2014-01-30T08:50",
      29
    ],
    [
      "CDISCPILOT01",
      "LB",
      "01-701-1015",
      111,
      "CA",
      "Calcium",
      "CHEMISTRY",
      "9.2",
      "mg/dL",
      "8.4",
      "10.3",
      "2.2954",
      2.2954,
      "mmol/L",
      2.1,
      2.57,
      "NORMAL",
      "",
      7,
      "WEEK 6",
      42,
      "2014-02-12T12:56",
      42
    ],
    [
      "CDISCPILOT01",
      "LB",
      "01-701-1015",
      141,
      "CA",
      "Calcium",
      "CHEMISTRY",
      "8.9",
      "mg/dL",
      "8.4",
      "10.3",
      "2.22055",
      2.22055,
      "mmol/L",
      2.1,
      2.57,
      "NORMAL",
      "",
      8,
      "WEEK 8",
      56,
      "2014-03-05T12:25",
      63
    ],
    [
      "CDISCPILOT01",
      "LB",
      "01-701-1015",
      171,
      "CA",
      "Calcium",
      "CHEMISTRY",
      "9.4",
      "mg/dL",
      "8.4",
      "10.3",
      "2.3453",
      2.3453,
      "mmol/L",
      2.1,
      2.57,
      "NORMAL",
      "",
      9,
      "WEEK 12",
      84,
      "2014-03-26T15:15",
      84
    ],
    [
      "CDISCPILOT01",
      "LB",
      "01-701-1015",
      206,
      "CA",
      "Calcium",
      "CHEMISTRY",
      "8.8",
      "mg/dL",
      "8.4",
      "10.3",
      "2.1956",
      2.1956,
      "mmol/L",
      2.1,
      2.57,
      "NORMAL",
      "",
      10,
      "WEEK 16",
      112,
      "2014-05-07T11:21",
      126
    ],
    [
      "CDISCPILOT01",
      "LB",
      "01-701-1015",
      236,
      "CA",
      "Calcium",
      "CHEMISTRY",
      "8.7",
      "mg/dL",
      "8.4",
      "10.3",
      "2.17065",
      2.17065,
      "mmol/L",
      2.1,
      2.57,
      "NORMAL",
      "",
      11,
      "WEEK 20",
      140,
      "2014-05-21T10:58",
      140
    ],
    [
      "CDISCPILOT01",
      "LB",
      "01-701-1015",
      266,
      "CA",
      "Calcium",
      "CHEMISTRY",
      "8.9",
      "mg/dL",
      "8.4",
      "10.3",
      "2.22055",
      2.22055,
      "mmol/L",
      2.1,
      2.57,
      "NORMAL",
      "",
      12,
      "WEEK 24",
      168,
      "2014-06-18T13:00",
      168
    ],
    [
      "CDISCPILOT01",
      "LB",
      "01-701-1015",
      301,
      "CA",
      "Calcium",
      "CHEMISTRY",
      "8.8",
      "mg/dL",
      "8.4",
      "10.3",
      "2.1956",
      2.1956,
      "mmol/L",
      2.1,
      2.57,
      "NORMAL",
      "",
      13,
      "WEEK 26",
      182,
      "2014-07-02T11:45",
      182
    ],
    [
      "CDISCPILOT01",
      "LB",
      "01-701-1015",
      10,
      "CHOL",
      "Cholesterol",
      "CHEMISTRY",
      "230",
      "mg/dL",
      "156",
      "300",
      "5.9478",
      5.9478,
      "mmol/L",
      4.03,
      7.76,
      "NORMAL",
      "Y",
      1,
      "SCREENING 1",
      -7,
      "2013-12-26T14:45",
      -7
    ],
    [
      "CDISCPILOT01",
      "LB",
      "01-701-1015",
      47,
      "CHOL",
      "Cholesterol",
      "CHEMISTRY",
      "212",
      "mg/dL",
      "156",
      "300",
      "5.48232",
      5.48232,
      "mmol/L",
      4.03,
      7.76,
      "NORMAL",
      "",
      4,
      "WEEK 2",
      14,
      "2014-01-16T13:17",
      15
    ],
    [
      "CDISCPILOT01",
      "LB",
      "01-701-1015",
      82,
      "CHOL",
      "Cholesterol",
      "CHEMISTRY",
      "193",
      "mg/dL",
      "156",
      "300",
      "4.99098",
      4.99098,
      "mmol/L",
      4.03,
      7.76,
      "NORMAL",
      "",
      5,
      "WEEK 4",
      28,
      "2014-01-30T08:50",
      29
    ],
    [
      "CDISCPILOT01",
      "LB",
      "01-701-1015",
      112,
      "CHOL",
      "Cholesterol",
      "CHEMISTRY",
      "218",
      "mg/dL",
      "156",
      "300",
      "5.63748",
      5.63748,
      "mmol/L",
      4.03,
      7.76,
      "NORMAL",
      "",
      7,
      "WEEK 6",
      42,
      "2014-02-12T12:56",
      42
    ],
    [
      "CDISCPILOT01",
      "LB",
      "01-701-1015",
      142,
      "CHOL",
      "Cholesterol",
      "CHEMISTRY",
      "214",
      "mg/dL",
      "156",
      "300",
      "5.53404",
      5.53404,
      "mmol/L",
      4.03,
      7.76,
      "NORMAL",
      "",
      8,
      "WEEK 8",
      56,
      "2014-03-05T12:25",
      63
    ],
    [
      "CDISCPILOT01",
      "LB",
      "01-701-1015",
      172,
      "CHOL",
      "Cholesterol",
      "CHEMISTRY",
      "218",
      "mg/dL",
      "156",
      "300",
      "5.63748",
      5.63748,
      "mmol/L",
      4.03,
      7.76,
      "NORMAL",
      "",
      9,
      "WEEK 12",
      84,
      "2014-03-26T15:15",
      84
    ],
    [
      "CDISCPILOT01",
      "LB",
      "01-701-1015",
      207,
      "CHOL",
      "Cholesterol",
      "CHEMISTRY",
      "213",
      "mg/dL",
      "156",
      "300",
      "5.50818",
      5.50818,
      "mmol/L",
      4.03,
      7.76,
      "NORMAL",
      "",
      10,
      "WEEK 16",
      112,
      "2014-05-07T11:21",
      126
    ],
    [
      "CDISCPILOT01",
      "LB",
      "01-701-1015",
      237,
      "CHOL",
      "Cholesterol",
      "CHEMISTRY",
      "207",
      "mg/dL",
      "156",
      "300",
      "5.35302",
      5.35302,
      "mmol/L",
      4.03,
      7.76,
      "NORMAL",
      "",
      11,
      "WEEK 20",
      140,
      "2014-05-21T10:58",
      140
    ],
    [
      "CDISCPILOT01",
      "LB",
      "01-701-1015",
      267,
      "CHOL",
      "Cholesterol",
      "CHEMISTRY",
      "201",
      "mg/dL",
      "156",
      "300",
      "5.19786",
      5.19786,
      "mmol/L",
      4.03,
      7.76,
      "NORMAL",
      "",
      12,
      "WEEK 24",
      168,
      "2014-06-18T13:00",
      168
    ],
    [
      "CDISCPILOT01",
      "LB",
      "01-701-1015",
      302,
      "CHOL",
      "Cholesterol",
      "CHEMISTRY",
      "214",
      "mg/dL",
      "156",
      "300",
      "5.53404",
      5.53404,
      "mmol/L",
      4.03,
      7.76,
      "NORMAL",
      "",
      13,
      "WEEK 26",
      182,
      "2014-07-02T11:45",
      182
    ],
    [
      "CDISCPILOT01",
      "LB",
      "01-701-1015",
      11,
      "CK",
      "Creatine Kinase",
      "CHEMISTRY",
      "70",
      "U/L",
      "21",
      "169",
      "70",
      70,
      "U/L",
      21,
      169,
      "NORMAL",
      "Y",
      1,
      "SCREENING 1",
      -7,
      "2013-12-26T14:45",
      -7
    ],
    [
      "CDISCPILOT01",
      "LB",
      "01-701-1015",
      48,
      "CK",
      "Creatine Kinase",
      "CHEMISTRY",
      "54",
      "U/L",
      "21",
      "169",
      "54",
      54,
      "U/L",
      21,
      169,
      "NORMAL",
      "",
      4,
      "WEEK 2",
      14,
      "2014-01-16T13:17",
      15
    ],
    [
      "CDISCPILOT01",
      "LB",
      "01-701-1015",
      83,
      "CK",
      "Creatine Kinase",
      "CHEMISTRY",
      "45",
      "U/L",
      "21",
      "169",
      "45",
      45,
      "U/L",
      21,
      169,
      "NORMAL",
      "",
      5,
      "WEEK 4",
      28,
      "2014-01-30T08:50",
      29
    ],
    [
      "CDISCPILOT01",
      "LB",
      "01-701-1015",
      113,
      "CK",
      "Creatine Kinase",
      "CHEMISTRY",
      "64",
      "U/L",
      "21",
      "169",
      "64",
      64,
      "U/L",
      21,
      169,
      "NORMAL",
      "",
      7,
      "WEEK 6",
      42,
      "2014-02-12T12:56",
      42
    ],
    [
      "CDISCPILOT01",
      "LB",
      "01-701-1015",
      143,
      "CK",
      "Creatine Kinase",
      "CHEMISTRY",
      "49",
      "U/L",
      "21",
      "169",
      "49",
      49,
      "U/L",
      21,
      169,
      "NORMAL",
      "",
      8,
      "WEEK 8",
      56,
      "2014-03-05T12:25",
      63
    ],
    [
      "CDISCPILOT01",
      "LB",
      "01-701-1015",
      173,
      "CK",
      "Creatine Kinase",
      "CHEMISTRY",
      "56",
      "U/L",
      "21",
      "169",
      "56",
      56,
      "U/L",
      21,
      169,
      "NORMAL",
      "",
      9,
      "WEEK 12",
      84,
      "2014-03-26T15:15",
      84
    ],
    [
      "CDISCPILOT01",
      "LB",
      "01-701-1015",
      208,
      "CK",
      "Creatine Kinase",
      "CHEMISTRY",
      "50",
      "U/L",
      "21",
      "169",
      "50",
      50,
      "U/L",
      21,
      169,
      "NORMAL",
      "",
      10,
      "WEEK 16",
      112,
      "2014-05-07T11:21",
      126
    ],
    [
      "CDISCPILOT01",
      "LB",
      "01-701-1015",
      238,
      "CK",
      "Creatine Kinase",
      "CHEMISTRY",
      "50",
      "U/L",
      "21",
      "169",
      "50",
      50,
      "U/L",
      21,
      169,
      "NORMAL",
      "",
      11,
      "WEEK 20",
      140,
      "2014-05-21T10:58",
      140
    ],
    [
      "CDISCPILOT01",
      "LB",
      "01-701-1015",
      268,
      "CK",
      "Creatine Kinase",
      "CHEMISTRY",
      "42",
      "U/L",
      "21",
      "169",
      "42",
      42,
      "U/L",
      21,
      169,
      "NORMAL",
      "",
      12,
      "WEEK 24",
      168,
      "2014-06-18T13:00",
      168
    ],
    [
      "CDISCPILOT01",
      "LB",
      "01-701-1015",
      303,
      "CK",
      "Creatine Kinase",
      "CHEMISTRY",
      "44",
      "U/L",
      "21",
      "169",
      "44",
      44,
      "U/L",
      21,
      169,
      "NORMAL",
      "",
      13,
      "WEEK 26",
      182,
      "2014-07-02T11:45",
      182
    ],
    [
      "CDISCPILOT01",
      "LB",
      "01-701-1015",
      12,
      "CL",
      "Chloride",
      "CHEMISTRY",
      "106",
      "mEq/L",
      "94",
      "112",
      "106",
      106,
      "mmol/L",
      94,
      112,
      "NORMAL",
      "Y",
      1,
      "SCREENING 1",
      -7,
      "2013-12-26T14:45",
      -7
    ],
    [
      "CDISCPILOT01",
      "LB",
      "01-701-1015",
      49,
      "CL",
      "Chloride",
      "CHEMISTRY",
      "103",
      "mEq/L",
      "94",
      "112",
      "103",
      103,
      "mmol/L",
      94,
      112,
      "NORMAL",
      "",
      4,
      "WEEK 2",
      14,
      "2014-01-16T13:17",
      15
    ],
    [
      "CDISCPILOT01",
      "LB",
      "01-701-1015",
      84,
      "CL",
      "Chloride",
      "CHEMISTRY",
      "107",
      "mEq/L",
      "94",
      "112",
      "107",
      107,
      "mmol/L",
      94,
      112,
      "NORMAL",
      "",
      5,
      "WEEK 4",
      28,
      "2014-01-30T08:50",
      29
    ],
    [
      "CDISCPILOT01",
      "LB",
      "01-701-1015",
      114,
      "CL",
      "Chloride",
      "CHEMISTRY",
      "105",
      "mEq/L",
      "94",
      "112",
      "105",
      105,
      "mmol/L",
      94,
      112,
      "NORMAL",
      "",
      7,
      "WEEK 6",
      42,
      "2014-02-12T12:56",
      42
    ],
    [
      "CDISCPILOT01",
      "LB",
      "01-701-1015",
      144,
      "CL",
      "Chloride",
      "CHEMISTRY",
      "105",
      "mEq/L",
      "94",
      "112",
      "105",
      105,
      "mmol/L",
      94,
      112,
      "NORMAL",
      "",
      8,
      "WEEK 8",
      56,
      "2014-03-05T12:25",
      63
    ],
    [
      "CDISCPILOT01",
      "LB",
      "01-701-1015",
      174,
      "CL",
      "Chloride",
      "CHEMISTRY",
      "99",
      "mEq/L",
      "94",
      "112",
      "99",
      99,
      "mmol/L",
      94,
      112,
      "NORMAL",
      "",
      9,
      "WEEK 12",
      84,
      "2014-03-26T15:15",
      84
    ],
    [
      "CDISCPILOT01",
      "LB",
      "01-701-1015",
      209,
      "CL",
      "Chloride",
      "CHEMISTRY",
      "103",
      "mEq/L",
      "94",
      "112",
      "103",
      103,
      "mmol/L",
      94,
      112,
      "NORMAL",
      "",
      10,
      "WEEK 16",
      112,
      "2014-05-07T11:21",
      126
    ],
    [
      "CDISCPILOT01",
      "LB",
      "01-701-1015",
      239,
      "CL",
      "Chloride",
      "CHEMISTRY",
      "108",
      "mEq/L",
      "94",
      "112",
      "108",
      108,
      "mmol/L",
      94,
      112,
      "NORMAL",
      "",
      11,
      "WEEK 20",
      140,
      "2014-05-21T10:58",
      140
    ],
    [
      "CDISCPILOT01",
      "LB",
      "01-701-1015",
      269,
      "CL",
      "Chloride",
      "CHEMISTRY",
      "103",
      "mEq/L",
      "94",
      "112",
      "103",
      103,
      "mmol/L",
      94,
      112,
      "NORMAL",
      "",
      12,
      "WEEK 24",
      168,
      "2014-06-18T13:00",
      168
    ],
    [
      "CDISCPILOT01",
      "LB",
      "01-701-1015",
      304,
      "CL",
      "Chloride",
      "CHEMISTRY",
      "104",
      "mEq/L",
      "94",
      "112",
      "104",
      104,
      "mmol/L",
      94,
      112,
      "NORMAL",
      "",
      13,
      "WEEK 26",
      182,
      "2014-07-02T11:45",
      182
    ],
    [
      "CDISCPILOT01",
      "LB",
      "01-701-1015",
      13,
      "COLOR",
      "Color",
      "URINALYSIS",
      "N",
      "NO UNITS",
      "",
      "",
      "N",
      null,
      "",
      null,
      null,
      "NORMAL",
      "Y",
      1,
      "SCREENING 1",
      -7,
      "2013-12-26T14:45",
      -7
    ],
    [
      "CDISCPILOT01",
      "LB",
      "01-701-1015",
      50,
      "COLOR",
      "Color",
      "URINALYSIS",
      "N",
      "NO UNITS",
      "",
      "",
      "N",
      null,
      "",
      null,
      null,
      "NORMAL",
      "",
      4,
      "WEEK 2",
      14,
      "2014-01-16T13:17",
      15
    ],
    [
      "CDISCPILOT01",
      "LB",
      "01-701-1015",
      175,
      "COLOR",
      "Color",
      "URINALYSIS",
      "N",
      "NO UNITS",
      "",
      "",
      "N",
      null,
      "",
      null,
      null,
      "NORMAL",
      "",
      9,
      "WEEK 12",
      84,
      "2014-03-26T15:15",
      84
    ],
    [
      "CDISCPILOT01",
      "LB",
      "01-701-1015",
      270,
      "COLOR",
      "Color",
      "URINALYSIS",
      "N",
      "NO UNITS",
      "",
      "",
      "N",
      null,
      "",
      null,
      null,
      "NORMAL",
      "",
      12,
      "WEEK 24",
      168,
      "2014-06-18T13:00",
      168
    ],
    [
      "CDISCPILOT01",
      "LB",
      "01-701-1015",
      14,
      "CREAT",
      "Creatinine",
      "CHEMISTRY",
      "0.9",
      "mg/dL",
      "0.7",
      "1.4",
      "79.56",
      79.56,
      "umol/L",
      62,
      124,
      "NORMAL",
      "Y",
      1,
      "SCREENING 1",
      -7,
      "2013-12-26T14:45",
      -7
    ],
    [
      "CDISCPILOT01",
      "LB",
      "01-701-1015",
      51,
      "CREAT",
      "Creatinine",
      "CHEMISTRY",
      "1.0",
      "mg/dL",
      "0.7",
      "1.4",
      "88.4",
      88.4,
      "umol/L",
      62,
      124,
      "NORMAL",
      "",
      4,
      "WEEK 2",
      14,
      "2014-01-16T13:17",
      15
    ],
    [
      "CDISCPILOT01",
      "LB",
      "01-701-1015",
      85,
      "CREAT",
      "Creatinine",
      "CHEMISTRY",
      "0.8",
      "mg/dL",
      "0.7",
      "1.4",
      "70.72",
      70.72,
      "umol/L",
      62,
      124,
      "NORMAL",
      "",
      5,
      "WEEK 4",
      28,
      "2014-01-30T08:50",
      29
    ],
    [
      "CDISCPILOT01",
      "LB",
      "01-701-1015",
      115,
      "CREAT",
      "Creatinine",
      "CHEMISTRY",
      "1.0",
      "mg/dL",
      "0.7",
      "1.4",
      "88.4",
      88.4,
      "umol/L",
      62,
      124,
      "NORMAL",
      "",
      7,
      "WEEK 6",
      42,
      "2014-02-12T12:56",
      42
    ],
    [
      "CDISCPILOT01",
      "LB",
      "01-701-1015",
      145,
      "CREAT",
      "Creatinine",
      "CHEMISTRY",
      "1.0",
      "mg/dL",
      "0.7",
      "1.4",
      "88.4",
      88.4,
      "umol/L",
      62,
      124,
      "NORMAL",
      "",
      8,
      "WEEK 8",
      56,
      "2014-03-05T12:25",
      63
    ],
    [
      "CDISCPILOT01",
      "LB",
      "01-701-1015",
      176,
      "CREAT",
      "Creatinine",
      "CHEMISTRY",
      "0.9",
      "mg/dL",
      "0.7",
      "1.4",
      "79.56",
      79.56,
      "umol/L",
      62,
      124,
      "NORMAL",
      "",
      9,
      "WEEK 12",
      84,
      "2014-03-26T15:15",
      84
    ],
    [
      "CDISCPILOT01",
      "LB",
      "01-701-1015",
      210,
      "CREAT",
      "Creatinine",
      "CHEMISTRY",
      "1.0",
      "mg/dL",
      "0.7",
      "1.4",
      "88.4",
      88.4,
      "umol/L",
      62,
      124,
      "NORMAL",
      "",
      10,
      "WEEK 16",
      112,
      "2014-05-07T11:21",
      126
    ],
    [
      "CDISCPILOT01",
      "LB",
      "01-701-1015",
      240,
      "CREAT",
      "Creatinine",
      "CHEMISTRY",
      "0.9",
      "mg/dL",
      "0.7",
      "1.4",
      "79.56",
      79.56,
      "umol/L",
      62,
      124,
      "NORMAL",
      "",
      11,
      "WEEK 20",
      140,
      "2014-05-21T10:58",
      140
    ],
    [
      "CDISCPILOT01",
      "LB",
      "01-701-1015",
      271,
      "CREAT",
      "Creatinine",
      "CHEMISTRY",
      "0.9",
      "mg/dL",
      "0.7",
      "1.4",
      "79.56",
      79.56,
      "umol/L",
      62,
      124,
      "NORMAL",
      "",
      12,
      "WEEK 24",
      168,
      "2014-06-18T13:00",
      168
    ],
    [
      "CDISCPILOT01",
      "LB",
      "01-701-1015",
      305,
      "CREAT",
      "Creatinine",
      "CHEMISTRY",
      "1.0",
      "mg/dL",
      "0.7",
      "1.4",
      "88.4",
      88.4,
      "umol/L",
      62,
      124,
      "NORMAL",
      "",
      13,
      "WEEK 26",
      182,
      "2014-07-02T11:45",
      182
    ],
    [
      "CDISCPILOT01",
      "LB",
      "01-701-1015",
      15,
      "EOS",
      "Eosinophils",
      "HEMATOLOGY",
      "0.13",
      "THOU/uL",
      "0",
      "0.57",
      "0.13",
      0.13,
      "GI/L",
      0,
      0.57,
      "NORMAL",
      "Y",
      1,
      "SCREENING 1",
      -7,
      "2013-12-26T14:45",
      -7
    ],
    [
      "CDISCPILOT01",
      "LB",
      "01-701-1015",
      52,
      "EOS",
      "Eosinophils",
      "HEMATOLOGY",
      "0.08",
      "THOU/uL",
      "0",
      "0.57",
      "0.08",
      0.08,
      "GI/L",
      0,
      0.57,
      "NORMAL",
      "",
      4,
      "WEEK 2",
      14,
      "2014-01-16T13:17",
      15
    ],
    [
      "CDISCPILOT01",
      "LB",
      "01-701-1015",
      86,
      "EOS",
      "Eosinophils",
      "HEMATOLOGY",
      "0.08",
      "THOU/uL",
      "0",
      "0.57",
      "0.08",
      0.08,
      "GI/L",
      0,
      0.57,
      "NORMAL",
      "",
      5,
      "WEEK 4",
      28,
      "2014-01-30T08:50",
      29
    ],
    [
      "CDISCPILOT01",
      "LB",
      "01-701-1015",
      116,
      "EOS",
      "Eosinophils",
      "HEMATOLOGY",
      "0.08",
      "THOU/uL",
      "0",
      "0.57",
      "0.08",
      0.08,
      "GI/L",
      0,
      0.57,
      "NORMAL",
      "",
      7,
      "WEEK 6",
      42,
      "2014-02-12T12:56",
      42
    ],
    [
      "CDISCPILOT01",
      "LB",
      "01-701-1015",
      146,
      "EOS",
      "Eosinophils",
      "HEMATOLOGY",
      "0.09",
      "THOU/uL",
      "0",
      "0.57",
      "0.09",
      0.09,
      "GI/L",
      0,
      0.57,
      "NORMAL",
      "",
      8,
      "WEEK 8",
      56,
      "2014-03-05T12:25",
      63
    ],
    [
      "CDISCPILOT01",
      "LB",
      "01-701-1015",
      177,
      "EOS",
      "Eosinophils",
      "HEMATOLOGY",
      "0.13",
      "THOU/uL",
      "0",
      "0.57",
      "0.13",
      0.13,
      "GI/L",
      0,
      0.57,
      "NORMAL",
      "",
      9,
      "WEEK 12",
      84,
      "2014-03-26T15:15",
      84
    ],
    [
      "CDISCPILOT01",
      "LB",
      "01-701-1015",
      211,
      "EOS",
      "Eosinophils",
      "HEMATOLOGY",
      "0.09",
      "THOU/uL",
      "0",
      "0.57",
      "0.09",
      0.09,
      "GI/L",
      0,
      0.57,
      "NORMAL",
      "",
      10,
      "WEEK 16",
      112,
      "2014-05-07T11:21",
      126
    ],
    [
      "CDISCPILOT01",
      "LB",
      "01-701-1015",
      241,
      "EOS",
      "Eosinophils",
      "HEMATOLOGY",
      "0.06",
      "THOU/uL",
      "0",
      "0.57",
      "0.06",
      0.06,
      "GI/L",
      0,
      0.57,
      "NORMAL",
      "",
      11,
      "WEEK 20",
      140,
      "2014-05-21T10:58",
      140
    ],
    [
      "CDISCPILOT01",
      "LB",
      "01-701-1015",
      272,
      "EOS",
      "Eosinophils",
      "HEMATOLOGY",
      "0.09",
      "THOU/uL",
      "0",
      "0.57",
      "0.09",
      0.09,
      "GI/L",
      0,
      0.57,
      "NORMAL",
      "",
      12,
      "WEEK 24",
      168,
      "2014-06-18T13:00",
      168
    ],
    [
      "CDISCPILOT01",
      "LB",
      "01-701-1015",
      306,
      "EOS",
      "Eosinophils",
      "HEMATOLOGY",
      "0.07",
      "THOU/uL",
      "0",
      "0.57",
      "0.07",
      0.07,
      "GI/L",
      0,
      0.57,
      "NORMAL",
      "",
      13,
      "WEEK 26",
      182,
      "2014-07-02T11:45",
      182
    ],
    [
      "CDISCPILOT01",
      "LB",
      "01-701-1015",
      16,
      "GGT",
      "Gamma Glutamyl Transferase",
      "CHEMISTRY",
      "15",
      "U/L",
      "5",
      "50",
      "15",
      15,
      "U/L",
      5,
      50,
      "NORMAL",
      "Y",
      1,
      "SCREENING 1",
      -7,
      "2013-12-26T14:45",
      -7
    ],
    [
      "CDISCPILOT01",
      "LB",
      "01-701-1015",
      53,
      "GGT",
      "Gamma Glutamyl Transferase",
      "CHEMISTRY",
      "19",
      "U/L",
      "5",
      "50",
      "19",
      19,
      "U/L",
      5,
      50,
      "NORMAL",
      "",
      4,
      "WEEK 2",
      14,
      "2014-01-16T13:17",
      15
    ],
    [
      "CDISCPILOT01",
      "LB",
      "01-701-1015",
      87,
      "GGT",
      "Gamma Glutamyl Transferase",
      "CHEMISTRY",
      "15",
      "U/L",
      "5",
      "50",
      "15",
      15,
      "U/L",
      5,
      50,
      "NORMAL",
      "",
      5,
      "WEEK 4",
      28,
      "2014-01-30T08:50",
      29
    ],
    [
      "CDISCPILOT01",
      "LB",
      "01-701-1015",
      117,
      "GGT",
      "Gamma Glutamyl Transferase",
      "CHEMISTRY",
      "14",
      "U/L",
      "5",
      "50",
      "14",
      14,
      "U/L",
      5,
      50,
      "NORMAL",
      "",
      7,
      "WEEK 6",
      42,
      "2014-02-12T12:56",
      42
    ],
    [
      "CDISCPILOT01",
      "LB",
      "01-701-1015",
      147,
      "GGT",
      "Gamma Glutamyl Transferase",
      "CHEMISTRY",
      "14",
      "U/L",
      "5",
      "50",
      "14",
      14,
      "U/L",
      5,
      50,
      "NORMAL",
      "",
      8,
      "WEEK 8",
      56,
      "2014-03-05T12:25",
      63
    ],
    [
      "CDISCPILOT01",
      "LB",
      "01-701-1015",
      178,
      "GGT",
      "Gamma Glutamyl Transferase",
      "CHEMISTRY",
      "23",
      "U/L",
      "5",
      "50",
      "23",
      23,
      "U/L",
      5,
      50,
      "NORMAL",
      "",
      9,
      "WEEK 12",
      84,
      "2014-03-26T15:15",
      84
    ],
    [
      "CDISCPILOT01",
      "LB",
      "01-701-1015",
      212,
      "GGT",
      "Gamma Glutamyl Transferase",
      "CHEMISTRY",
      "15",
      "U/L",
      "5",
      "50",
      "15",
      15,
      "U/L",
      5,
      50,
      "NORMAL",
      "",
      10,
      "WEEK 16",
      112,
      "2014-05-07T11:21",
      126
    ],
    [
      "CDISCPILOT01",
      "LB",
      "01-701-1015",
      242,
      "GGT",
      "Gamma Glutamyl Transferase",
      "CHEMISTRY",
      "17",
      "U/L",
      "5",
      "50",
      "17",
      17,
      "U/L",
      5,
      50,
      "NORMAL",
      "",
      11,
      "WEEK 20",
      140,
      "2014-05-21T10:58",
      140
    ],
    [
      "CDISCPILOT01",
      "LB",
      "01-701-1015",
      273,
      "GGT",
      "Gamma Glutamyl Transferase",
      "CHEMISTRY",
      "20",
      "U/L",
      "5",
      "50",
      "20",
      20,
      "U/L",
      5,
      50,
      "NORMAL",
      "",
      12,
      "WEEK 24",
      168,
      "2014-06-18T13:00",
      168
    ],
    [
      "CDISCPILOT01",
      "LB",
      "01-701-1015",
      307,
      "GGT",
      "Gamma Glutamyl Transferase",
      "CHEMISTRY",
      "16",
      "U/L",
      "5",
      "50",
      "16",
      16,
      "U/L",
      5,
      50,
      "NORMAL",
      "",
      13,
      "WEEK 26",
      182,
      "2014-07-02T11:45",
      182
    ],
    [
      "CDISCPILOT01",
      "LB",
      "01-701-1015",
      17,
      "GLUC",
      "Glucose",
      "CHEMISTRY",
      "85",
      "mg/dL",
      "50",
      "250",
      "4.71835",
      4.71835,
      "mmol/L",
      2.8,
      13.9,
      "NORMAL",
      "Y",
      1,
      "SCREENING 1",
      -7,
      "2013-12-26T14:45",
      -7
    ],
    [
      "CDISCPILOT01",
      "LB",
      "01-701-1015",
      54,
      "GLUC",
      "Glucose",
      "CHEMISTRY",
      "84",
      "mg/dL",
      "50",
      "250",
      "4.66284",
      4.66284,
      "mmol/L",
      2.8,
      13.9,
      "NORMAL",
      "",
      4,
      "WEEK 2",
      14,
      "2014-01-16T13:17",
      15
    ],
    [
      "CDISCPILOT01",
      "LB",
      "01-701-1015",
      88,
      "GLUC",
      "Glucose",
      "CHEMISTRY",
      "79",
      "mg/dL",
      "50",
      "250",
      "4.38529",
      4.38529,
      "mmol/L",
      2.8,
      13.9,
      "NORMAL",
      "",
      5,
      "WEEK 4",
      28,
      "2014-01-30T08:50",
      29
    ],
    [
      "CDISCPILOT01",
      "LB",
      "01-701-1015",
      118,
      "GLUC",
      "Glucose",
      "CHEMISTRY",
      "92",
      "mg/dL",
      "50",
      "250",
      "5.10692",
      5.10692,
      "mmol/L",
      2.8,
      13.9,
      "NORMAL",
      "",
      7,
      "WEEK 6",
      42,
      "2014-02-12T12:56",
      42
    ],
    [
      "CDISCPILOT01",
      "LB",
      "01-701-1015",
      148,
      "GLUC",
      "Glucose",
      "CHEMISTRY",
      "82",
      "mg/dL",
      "50",
      "250",
      "4.55182",
      4.55182,
      "mmol/L",
      2.8,
      13.9,
      "NORMAL",
      "",
      8,
      "WEEK 8",
      56,
      "2014-03-05T12:25",
      63
    ],
    [
      "CDISCPILOT01",
      "LB",
      "01-701-1015",
      179,
      "GLUC",
      "Glucose",
      "CHEMISTRY",
      "87",
      "mg/dL",
      "50",
      "250",
      "4.82937",
      4.82937,
      "mmol/L",
      2.8,
      13.9,
      "NORMAL",
      "",
      9,
      "WEEK 12",
      84,
      "2014-03-26T15:15",
      84
    ],
    [
      "CDISCPILOT01",
      "LB",
      "01-701-1015",
      213,
      "GLUC",
      "Glucose",
      "CHEMISTRY",
      "86",
      "mg/dL",
      "50",
      "250",
      "4.77386",
      4.77386,
      "mmol/L",
      2.8,
      13.9,
      "NORMAL",
      "",
      10,
      "WEEK 16",
      112,
      "2014-05-07T11:21",
      126
    ],
    [
      "CDISCPILOT01",
      "LB",
      "01-701-1015",
      243,
      "GLUC",
      "Glucose",
      "CHEMISTRY",
      "88",
      "mg/dL",
      "50",
      "250",
      "4.88488",
      4.88488,
      "mmol/L",
      2.8,
      13.9,
      "NORMAL",
      "",
      11,
      "WEEK 20",
      140,
      "2014-05-21T10:58",
      140
    ],
    [
      "CDISCPILOT01",
      "LB",
      "01-701-1015",
      274,
      "GLUC",
      "Glucose",
      "CHEMISTRY",
      "81",
      "mg/dL",
      "50",
      "250",
      "4.49631",
      4.49631,
      "mmol/L",
      2.8,
      13.9,
      "NORMAL",
      "",
      12,
      "WEEK 24",
      168,
      "2014-06-18T13:00",
      168
    ],
    [
      "CDISCPILOT01",
      "LB",
      "01-701-1015",
      308,
      "GLUC",
      "Glucose",
      "CHEMISTRY",
      "92",
      "mg/dL",
      "50",
      "250",
      "5.10692",
      5.10692,
      "mmol/L",
      2.8,
      13.9,
      "NORMAL",
      "",
      13,
      "WEEK 26",
      182,
      "2014-07-02T11:45",
      182
    ],
    [
      "CDISCPILOT01",
      "LB",
      "01-701-1015",
      18,
      "HCT",
      "Hematocrit",
      "HEMATOLOGY",
      "42.0",
      "%",
      "34",
      "48",
      "0.42",
      0.42,
      "1",
      0.34,
      0.48,
      "NORMAL",
      "Y",
      1,
      "SCREENING 1",
      -7,
      "2013-12-26T14:45",
      -7
    ],
    [
      "CDISCPILOT01",
      "LB",
      "01-701-1015",
      55,
      "HCT",
      "Hematocrit",
      "HEMATOLOGY",
      "43.0",
      "%",
      "34",
      "48",
      "0.43",
      0.43,
      "1",
      0.34,
      0.48,
      "NORMAL",
      "",
      4,
      "WEEK 2",
      14,
      "2014-01-16T13:17",
      15
    ],
    [
      "CDISCPILOT01",
      "LB",
      "01-701-1015",
      89,
      "HCT",
      "Hematocrit",
      "HEMATOLOGY",
      "39.0",
      "%",
      "34",
      "48",
      "0.39",
      0.39,
      "1",
      0.34,
      0.48,
      "NORMAL",
      "",
      5,
      "WEEK 4",
      28,
      "2014-01-30T08:50",
      29
    ],
    [
      "CDISCPILOT01",
      "LB",
      "01-701-1015",
      119,
      "HCT",
      "Hematocrit",
      "HEMATOLOGY",
      "40.0",
      "%",
      "34",
      "48",
      "0.4",
      0.4,
      "1",
      0.34,
      0.48,
      "NORMAL",
      "",
      7,
      "WEEK 6",
      42,
      "2014-02-12T12:56",
      42
    ],
    [
      "CDISCPILOT01",
      "LB",
      "01-701-1015",
      149,
      "HCT",
      "Hematocrit",
      "HEMATOLOGY",
      "42.0",
      "%",
      "34",
      "48",
      "0.42",
      0.42,
      "1",
      0.34,
      0.48,
      "NORMAL",
      "",
      8,
      "WEEK 8",
      56,
      "2014-03-05T12:25",
      63
    ],
    [
      "CDISCPILOT01",
      "LB",
      "01-701-1015",
      180,
      "HCT",
      "Hematocrit",
      "HEMATOLOGY",
      "41.0",
      "%",
      "34",
      "48",
      "0.41",
      0.41,
      "1",
      0.34,
      0.48,
      "NORMAL",
      "",
      9,
      "WEEK 12",
      84,
      "2014-03-26T15:15",
      84
    ],
    [
      "CDISCPILOT01",
      "LB",
      "01-701-1015",
      214,
      "HCT",
      "Hematocrit",
      "HEMATOLOGY",
      "41.0",
      "%",
      "34",
      "48",
      "0.41",
      0.41,
      "1",
      0.34,
      0.48,
      "NORMAL",
      "",
      10,
      "WEEK 16",
      112,
      "2014-05-07T11:21",
      126
    ],
    [
      "CDISCPILOT01",
      "LB",
      "01-701-1015",
      244,
      "HCT",
      "Hematocrit",
      "HEMATOLOGY",
      "40.0",
      "%",
      "34",
      "48",
      "0.4",
      0.4,
      "1",
      0.34,
      0.48,
      "NORMAL",
      "",
      11,
      "WEEK 20",
      140,
      "2014-05-21T10:58",
      140
    ],
    [
      "CDISCPILOT01",
      "LB",
      "01-701-1015",
      275,
      "HCT",
      "Hematocrit",
      "HEMATOLOGY",
      "44.0",
      "%",
      "34",
      "48",
      "0.44",
      0.44,
      "1",
      0.34,
      0.48,
      "NORMAL",
      "",
      12,
      "WEEK 24",
      168,
      "2014-06-18T13:00",
      168
    ],
    [
      "CDISCPILOT01",
      "LB",
      "01-701-1015",
      309,
      "HCT",
      "Hematocrit",
      "HEMATOLOGY",
      "45.0",
      "%",
      "34",
      "48",
      "0.45",
      0.45,
      "1",
      0.34,
      0.48,
      "NORMAL",
      "",
      13,
      "WEEK 26",
      182,
      "2014-07-02T11:45",
      182
    ],
    [
      "CDISCPILOT01",
      "LB",
      "01-701-1015",
      19,
      "HGB",
      "Hemoglobin",
      "HEMATOLOGY",
      "14.3",
      "g/dL",
      "11.5",
      "15.8",
      "8.87458",
      8.87458,
      "mmol/L",
      7.14,
      9.81,
      "NORMAL",
      "Y",
      1,
      "SCREENING 1",
      -7,
      "2013-12-26T14:45",
      -7
    ],
    [
      "CDISCPILOT01",
      "LB",
      "01-701-1015",
      56,
      "HGB",
      "Hemoglobin",
      "HEMATOLOGY",
      "14.3",
      "g/dL",
      "11.5",
      "15.8",
      "8.87458",
      8.87458,
      "mmol/L",
      7.14,
      9.81,
      "NORMAL",
      "",
      4,
      "WEEK 2",
      14,
      "2014-01-16T13:17",
      15
    ],
    [
      "CDISCPILOT01",
      "LB",
      "01-701-1015",
      90,
      "HGB",
      "Hemoglobin",
      "HEMATOLOGY",
      "13.4",
      "g/dL",
      "11.5",
      "15.8",
      "8.31604",
      8.31604,
      "mmol/L",
      7.14,
      9.81,
      "NORMAL",
      "",
      5,
      "WEEK 4",
      28,
      "2014-01-30T08:50",
      29
    ],
    [
      "CDISCPILOT01",
      "LB",
      "01-701-1015",
      120,
      "HGB",
      "Hemoglobin",
      "HEMATOLOGY",
      "13.8",
      "g/dL",
      "11.5",
      "15.8",
      "8.56428",
      8.56428,
      "mmol/L",
      7.14,
      9.81,
      "NORMAL",
      "",
      7,
      "WEEK 6",
      42,
      "2014-02-12T12:56",
      42
    ],
    [
      "CDISCPILOT01",
      "LB",
      "01-701-1015",
      150,
      "HGB",
      "Hemoglobin",
      "HEMATOLOGY",
      "14.0",
      "g/dL",
      "11.5",
      "15.8",
      "8.6884",
      8.6884,
      "mmol/L",
      7.14,
      9.81,
      "NORMAL",
      "",
      8,
      "WEEK 8",
      56,
      "2014-03-05T12:25",
      63
    ],
    [
      "CDISCPILOT01",
      "LB",
      "01-701-1015",
      181,
      "HGB",
      "Hemoglobin",
      "HEMATOLOGY",
      "13.4",
      "g/dL",
      "11.5",
      "15.8",
      "8.31604",
      8.31604,
      "mmol/L",
      7.14,
      9.81,
      "NORMAL",
      "",
      9,
      "WEEK 12",
      84,
      "2014-03-26T15:15",
      84
    ],
    [
      "CDISCPILOT01",
      "LB",
      "01-701-1015",
      215,
      "HGB",
      "Hemoglobin",
      "HEMATOLOGY",
      "14.1",
      "g/dL",
      "11.5",
      "15.8",
      "8.75046",
      8.75046,
      "mmol/L",
      7.14,
      9.81,
      "NORMAL",
      "",
      10,
      "WEEK 16",
      112,
      "2014-05-07T11:21",
      126
    ],
    [
      "CDISCPILOT01",
      "LB",
      "01-701-1015",
      245,
      "HGB",
      "Hemoglobin",
      "HEMATOLOGY",
      "13.7",
      "g/dL",
      "11.5",
      "15.8",
      "8.50222",
      8.50222,
      "mmol/L",
      7.14,
      9.81,
      "NORMAL",
      "",
      11,
      "WEEK 20",
      140,
      "2014-05-21T10:58",
      140
    ],
    [
      "CDISCPILOT01",
      "LB",
      "01-701-1015",
      276,
      "HGB",
      "Hemoglobin",
      "HEMATOLOGY",
      "14.0",
      "g/dL",
      "11.5",
      "15.8",
      "8.6884",
      8.6884,
      "mmol/L",
      7.14,
      9.81,
      "NORMAL",
      "",
      12,
      "WEEK 24",
      168,
      "2014-06-18T13:00",
      168
    ],
    [
      "CDISCPILOT01",
      "LB",
      "01-701-1015",
      310,
      "HGB",
      "Hemoglobin",
      "HEMATOLOGY",
      "14.3",
      "g/dL",
      "11.5",
      "15.8",
      "8.87458",
      8.87458,
      "mmol/L",
      7.14,
      9.81,
      "NORMAL",
      "",
      13,
      "WEEK 26",
      182,
      "2014-07-02T11:45",
      182
    ],
    [
      "CDISCPILOT01",
      "LB",
      "01-701-1015",
      20,
      "K",
      "Potassium",
      "CHEMISTRY",
      "4.5",
      "mEq/L",
      "3.4",
      "5.4",
      "4.5",
      4.5,
      "mmol/L",
      3.4,
      5.4,
      "NORMAL",
      "Y",
      1,
      "SCREENING 1",
      -7,
      "2013-12-26T14:45",
      -7
    ],
    [
      "CDISCPILOT01",
      "LB",
      "01-701-1015",
      57,
      "K",
      "Potassium",
      "CHEMISTRY",
      "4.4",
      "mEq/L",
      "3.4",
      "5.4",
      "4.4",
      4.4,
      "mmol/L",
      3.4,
      5.4,
      "NORMAL",
      "",
      4,
      "WEEK 2",
      14,
      "2014-01-16T13:17",
      15
    ],
    [
      "CDISCPILOT01",
      "LB",
      "01-701-1015",
      91,
      "K",
      "Potassium",
      "CHEMISTRY",
      "4.5",
      "mEq/L",
      "3.4",
      "5.4",
      "4.5",
      4.5,
      "mmol/L",
      3.4,
      5.4,
      "NORMAL",
      "",
      5,
      "WEEK 4",
      28,
      "2014-01-30T08:50",
      29
    ],
    [
      "CDISCPILOT01",
      "LB",
      "01-701-1015",
      121,
      "K",
      "Potassium",
      "CHEMISTRY",
      "4.6",
      "mEq/L",
      "3.4",
      "5.4",
      "4.6",
      4.6,
      "mmol/L",
      3.4,
      5.4,
      "NORMAL",
      "",
      7,
      "WEEK 6",
      42,
      "2014-02-12T12:56",
      42
    ],
    [
      "CDISCPILOT01",
      "LB",
      "01-701-1015",
      151,
      "K",
      "Potassium",
      "CHEMISTRY",
      "4.1",
      "mEq/L",
      "3.4",
      "5.4",
      "4.1",
      4.1,
      "mmol/L",
      3.4,
      5.4,
      "NORMAL",
      "",
      8,
      "WEEK 8",
      56,
      "2014-03-05T12:25",
      63
    ],
    [
      "CDISCPILOT01",
      "LB",
      "01-701-1015",
      182,
      "K",
      "Potassium",
      "CHEMISTRY",
      "3.6",
      "mEq/L",
      "3.4",
      "5.4",
      "3.6",
      3.6,
      "mmol/L",
      3.4,
      5.4,
      "NORMAL",
      "",
      9,
      "WEEK 12",
      84,
      "2014-03-26T15:15",
      84
    ],
    [
      "CDISCPILOT01",
      "LB",
      "01-701-1015",
      216,
      "K",
      "Potassium",
      "CHEMISTRY",
      "4.1",
      "mEq/L",
      "3.4",
      "5.4",
      "4.1",
      4.1,
      "mmol/L",
      3.4,
      5.4,
      "NORMAL",
      "",
      10,
      "WEEK 16",
      112,
      "2014-05-07T11:21",
      126
    ],
    [
      "CDISCPILOT01",
      "LB",
      "01-701-1015",
      246,
      "K",
      "Potassium",
      "CHEMISTRY",
      "4.3",
      "mEq/L",
      "3.4",
      "5.4",
      "4.3",
      4.3,
      "mmol/L",
      3.4,
      5.4,
      "NORMAL",
      "",
      11,
      "WEEK 20",
      140,
      "2014-05-21T10:58",
      140
    ],
    [
      "CDISCPILOT01",
      "LB",
      "01-701-1015",
      277,
      "K",
      "Potassium",
      "CHEMISTRY",
      "4.1",
      "mEq/L",
      "3.4",
      "5.4",
      "4.1",
      4.1,
      "mmol/L",
      3.4,
      5.4,
      "NORMAL",
      "",
      12,
      "WEEK 24",
      168,
      "2014-06-18T13:00",
      168
    ],
    [
      "CDISCPILOT01",
      "LB",
      "01-701-1015",
      311,
      "K",
      "Potassium",
      "CHEMISTRY",
      "4.5",
      "mEq/L",
      "3.4",
      "5.4",
      "4.5",
      4.5,
      "mmol/L",
      3.4,
      5.4,
      "NORMAL",
      "",
      13,
      "WEEK 26",
      182,
      "2014-07-02T11:45",
      182
    ],
    [
      "CDISCPILOT01",
      "LB",
      "01-701-1015",
      21,
      "KETONES",
      "Ketones",
      "URINALYSIS",
      "0",
      "NO UNITS",
      "",
      "",
      "0",
      0,
      "",
      null,
      null,
      "NORMAL",
      "Y",
      1,
      "SCREENING 1",
      -7,
      "2013-12-26T14:45",
      -7
    ],
    [
      "CDISCPILOT01",
      "LB",
      "01-701-1015",
      58,
      "KETONES",
      "Ketones",
      "URINALYSIS",
      "0",
      "NO UNITS",
      "",
      "",
      "0",
      0,
      "",
      null,
      null,
      "NORMAL",
      "",
      4,
      "WEEK 2",
      14,
      "2014-01-16T13:17",
      15
    ],
    [
      "CDISCPILOT01",
      "LB",
      "01-701-1015",
      183,
      "KETONES",
      "Ketones",
      "URINALYSIS",
      "0",
      "NO UNITS",
      "",
      "",
      "0",
      0,
      "",
      null,
      null,
      "NORMAL",
      "",
      9,
      "WEEK 12",
      84,
      "2014-03-26T15:15",
      84
    ],
    [
      "CDISCPILOT01",
      "LB",
      "01-701-1015",
      278,
      "KETONES",
      "Ketones",
      "URINALYSIS",
      "0",
      "NO UNITS",
      "",
      "",
      "0",
      0,
      "",
      null,
      null,
      "NORMAL",
      "",
      12,
      "WEEK 24",
      168,
      "2014-06-18T13:00",
      168
    ],
    [
      "CDISCPILOT01",
      "LB",
      "01-701-1015",
      22,
      "LYM",
      "Lymphocytes",
      "HEMATOLOGY",
      "2.11",
      "THOU/uL",
      "0.8",
      "3",
      "2.11",
      2.11,
      "GI/L",
      0.8,
      3,
      "NORMAL",
      "Y",
      1,
      "SCREENING 1",
      -7,
      "2013-12-26T14:45",
      -7
    ],
    [
      "CDISCPILOT01",
      "LB",
      "01-701-1015",
      59,
      "LYM",
      "Lymphocytes",
      "HEMATOLOGY",
      "1.98",
      "THOU/uL",
      "0.8",
      "3",
      "1.98",
      1.98,
      "GI/L",
      0.8,
      3,
      "NORMAL",
      "",
      4,
      "WEEK 2",
      14,
      "2014-01-16T13:17",
      15
    ],
    [
      "CDISCPILOT01",
      "LB",
      "01-701-1015",
      92,
      "LYM",
      "Lymphocytes",
      "HEMATOLOGY",
      "1.93",
      "THOU/uL",
      "0.8",
      "3",
      "1.93",
      1.93,
      "GI/L",
      0.8,
      3,
      "NORMAL",
      "",
      5,
      "WEEK 4",
      28,
      "2014-01-30T08:50",
      29
    ],
    [
      "CDISCPILOT01",
      "LB",
      "01-701-1015",
      122,
      "LYM",
      "Lymphocytes",
      "HEMATOLOGY",
      "1.51",
      "THOU/uL",
      "0.8",
      "3",
      "1.51",
      1.51,
      "GI/L",
      0.8,
      3,
      "NORMAL",
      "",
      7,
      "WEEK 6",
      42,
      "2014-02-12T12:56",
      42
    ],
    [
      "CDISCPILOT01",
      "LB",
      "01-701-1015",
      152,
      "LYM",
      "Lymphocytes",
      "HEMATOLOGY",
      "1.97",
      "THOU/uL",
      "0.8",
      "3",
      "1.97",
      1.97,
      "GI/L",
      0.8,
      3,
      "NORMAL",
      "",
      8,
      "WEEK 8",
      56,
      "2014-03-05T12:25",
      63
    ],
    [
      "CDISCPILOT01",
      "LB",
      "01-701-1015",
      184,
      "LYM",
      "Lymphocytes",
      "HEMATOLOGY",
      "2.09",
      "THOU/uL",
      "0.8",
      "3",
      "2.09",
      2.09,
      "GI/L",
      0.8,
      3,
      "NORMAL",
      "",
      9,
      "WEEK 12",
      84,
      "2014-03-26T15:15",
      84
    ],
    [
      "CDISCPILOT01",
      "LB",
      "01-701-1015",
      217,
      "LYM",
      "Lymphocytes",
      "HEMATOLOGY",
      "2.02",
      "THOU/uL",
      "0.8",
      "3",
      "2.02",
      2.02,
      "GI/L",
      0.8,
      3,
      "NORMAL",
      "",
      10,
      "WEEK 16",
      112,
      "2014-05-07T11:21",
      126
    ],
    [
      "CDISCPILOT01",
      "LB",
      "01-701-1015",
      247,
      "LYM",
      "Lymphocytes",
      "HEMATOLOGY",
      "1.78",
      "THOU/uL",
      "0.8",
      "3",
      "1.78",
      1.78,
      "GI/L",
      0.8,
      3,
      "NORMAL",
      "",
      11,
      "WEEK 20",
      140,
      "2014-05-21T10:58",
      140
    ],
    [
      "CDISCPILOT01",
      "LB",
      "01-701-1015",
      279,
      "LYM",
      "Lymphocytes",
      "HEMATOLOGY",
      "2.55",
      "THOU/uL",
      "0.8",
      "3",
      "2.55",
      2.55,
      "GI/L",
      0.8,
      3,
      "NORMAL",
      "",
      12,
      "WEEK 24",
      168,
      "2014-06-18T13:00",
      168
    ],
    [
      "CDISCPILOT01",
      "LB",
      "01-701-1015",
      312,
      "LYM",
      "Lymphocytes",
      "HEMATOLOGY",
      "2.03",
      "THOU/uL",
      "0.8",
      "3",
      "2.03",
      2.03,
      "GI/L",
      0.8,
      3,
      "NORMAL",
      "",
      13,
      "WEEK 26",
      182,
      "2014-07-02T11:45",
      182
    ],
    [
      "CDISCPILOT01",
      "LB",
      "01-701-1015",
      23,
      "MCH",
      "Ery. Mean Corpuscular Hemoglobin",
      "HEMATOLOGY",
      "27",
      "pg",
      "26",
      "34",
      "1.67562",
      1.67562,
      "fmol(Fe)",
      1.6,
      2.1,
      "NORMAL",
      "Y",
      1,
      "SCREENING 1",
      -7,
      "2013-12-26T14:45",
      -7
    ],
    [
      "CDISCPILOT01",
      "LB",
      "01-701-1015",
      60,
      "MCH",
      "Ery. Mean Corpuscular Hemoglobin",
      "HEMATOLOGY",
      "27",
      "pg",
      "26",
      "34",
      "1.67562",
      1.67562,
      "fmol(Fe)",
      1.6,
      2.1,
      "NORMAL",
      "",
      4,
      "WEEK 2",
      14,
      "2014-01-16T13:17",
      15
    ],
    [
      "CDISCPILOT01",
      "LB",
      "01-701-1015",
      93,
      "MCH",
      "Ery. Mean Corpuscular Hemoglobin",
      "HEMATOLOGY",
      "27",
      "pg",
      "26",
      "34",
      "1.67562",
      1.67562,
      "fmol(Fe)",
      1.6,
      2.1,
      "NORMAL",
      "",
      5,
      "WEEK 4",
      28,
      "2014-01-30T08:50",
      29
    ],
    [
      "CDISCPILOT01",
      "LB",
      "01-701-1015",
      123,
      "MCH",
      "Ery. Mean Corpuscular Hemoglobin",
      "HEMATOLOGY",
      "27",
      "pg",
      "26",
      "34",
      "1.67562",
      1.67562,
      "fmol(Fe)",
      1.6,
      2.1,
      "NORMAL",
      "",
      7,
      "WEEK 6",
      42,
      "2014-02-12T12:56",
      42
    ],
    [
      "CDISCPILOT01",
      "LB",
      "01-701-1015",
      153,
      "MCH",
      "Ery. Mean Corpuscular Hemoglobin",
      "HEMATOLOGY",
      "27",
      "pg",
      "26",
      "34",
      "1.67562",
      1.67562,
      "fmol(Fe)",
      1.6,
      2.1,
      "NORMAL",
      "",
      8,
      "WEEK 8",
      56,
      "2014-03-05T12:25",
      63
    ],
    [
      "CDISCPILOT01",
      "LB",
      "01-701-1015",
      185,
      "MCH",
      "Ery. Mean Corpuscular Hemoglobin",
      "HEMATOLOGY",
      "27",
      "pg",
      "26",
      "34",
      "1.67562",
      1.67562,
      "fmol(Fe)",
      1.6,
      2.1,
      "NORMAL",
      "",
      9,
      "WEEK 12",
      84,
      "2014-03-26T15:15",
      84
    ],
    [
      "CDISCPILOT01",
      "LB",
      "01-701-1015",
      218,
      "MCH",
      "Ery. Mean Corpuscular Hemoglobin",
      "HEMATOLOGY",
      "27",
      "pg",
      "26",
      "34",
      "1.67562",
      1.67562,
      "fmol(Fe)",
      1.6,
      2.1,
      "NORMAL",
      "",
      10,
      "WEEK 16",
      112,
      "2014-05-07T11:21",
      126
    ],
    [
      "CDISCPILOT01",
      "LB",
      "01-701-1015",
      248,
      "MCH",
      "Ery. Mean Corpuscular Hemoglobin",
      "HEMATOLOGY",
      "28",
      "pg",
      "26",
      "34",
      "1.73768",
      1.73768,
      "fmol(Fe)",
      1.6,
      2.1,
      "NORMAL",
      "",
      11,
      "WEEK 20",
      140,
      "2014-05-21T10:58",
      140
    ],
    [
      "CDISCPILOT01",
      "LB",
      "01-701-1015",
      280,
      "MCH",
      "Ery. Mean Corpuscular Hemoglobin",
      "HEMATOLOGY",
      "27",
      "pg",
      "26",
      "34",
      "1.67562",
      1.67562,
      "fmol(Fe)",
      1.6,
      2.1,
      "NORMAL",
      "",
      12,
      "WEEK 24",
      168,
      "2014-06-18T13:00",
      168
    ],
    [
      "CDISCPILOT01",
      "LB",
      "01-701-1015",
      313,
      "MCH",
      "Ery. Mean Corpuscular Hemoglobin",
      "HEMATOLOGY",
      "27",
      "pg",
      "26",
      "34",
      "1.67562",
      1.67562,
      "fmol(Fe)",
      1.6,
      2.1,
      "NORMAL",
      "",
      13,
      "WEEK 26",
      182,
      "2014-07-02T11:45",
      182
    ],
    [
      "CDISCPILOT01",
      "LB",
      "01-701-1015",
      24,
      "MCHC",
      "Ery. Mean Corpuscular HGB Concentration",
      "HEMATOLOGY",
      "34",
      "g/dL",
      "31",
      "38",
      "21.1004",
      21.1004,
      "mmol/L",
      19,
      24,
      "NORMAL",
      "Y",
      1,
      "SCREENING 1",
      -7,
      "2013-12-26T14:45",
      -7
    ],
    [
      "CDISCPILOT01",
      "LB",
      "01-701-1015",
      61,
      "MCHC",
      "Ery. Mean Corpuscular HGB Concentration",
      "HEMATOLOGY",
      "33",
      "g/dL",
      "31",
      "38",
      "20.4798",
      20.4798,
      "mmol/L",
      19,
      24,
      "NORMAL",
      "",
      4,
      "WEEK 2",
      14,
      "2014-01-16T13:17",
      15
    ],
    [
      "CDISCPILOT01",
      "LB",
      "01-701-1015",
      94,
      "MCHC",
      "Ery. Mean Corpuscular HGB Concentration",
      "HEMATOLOGY",
      "34",
      "g/dL",
      "31",
      "38",
      "21.1004",
      21.1004,
      "mmol/L",
      19,
      24,
      "NORMAL",
      "",
      5,
      "WEEK 4",
      28,
      "2014-01-30T08:50",
      29
    ],
    [
      "CDISCPILOT01",
      "LB",
      "01-701-1015",
      124,
      "MCHC",
      "Ery. Mean Corpuscular HGB Concentration",
      "HEMATOLOGY",
      "34",
      "g/dL",
      "31",
      "38",
      "21.1004",
      21.1004,
      "mmol/L",
      19,
      24,
      "NORMAL",
      "",
      7,
      "WEEK 6",
      42,
      "2014-02-12T12:56",
      42
    ],
    [
      "CDISCPILOT01",
      "LB",
      "01-701-1015",
      154,
      "MCHC",
      "Ery. Mean Corpuscular HGB Concentration",
      "HEMATOLOGY",
      "33",
      "g/dL",
      "31",
      "38",
      "20.4798",
      20.4798,
      "mmol/L",
      19,
      24,
      "NORMAL",
      "",
      8,
      "WEEK 8",
      56,
      "2014-03-05T12:25",
      63
    ],
    [
      "CDISCPILOT01",
      "LB",
      "01-701-1015",
      186,
      "MCHC",
      "Ery. Mean Corpuscular HGB Concentration",
      "HEMATOLOGY",
      "33",
      "g/dL",
      "31",
      "38",
      "20.4798",
      20.4798,
      "mmol/L",
      19,
      24,
      "NORMAL",
      "",
      9,
      "WEEK 12",
      84,
      "2014-03-26T15:15",
      84
    ],
    [
      "CDISCPILOT01",
      "LB",
      "01-701-1015",
      219,
      "MCHC",
      "Ery. Mean Corpuscular HGB Concentration",
      "HEMATOLOGY",
      "35",
      "g/dL",
      "31",
      "38",
      "21.721",
      21.721,
      "mmol/L",
      19,
      24,
      "NORMAL",
      "",
      10,
      "WEEK 16",
      112,
      "2014-05-07T11:21",
      126
    ],
    [
      "CDISCPILOT01",
      "LB",
      "01-701-1015",
      249,
      "MCHC",
      "Ery. Mean Corpuscular HGB Concentration",
      "HEMATOLOGY",
      "35",
      "g/dL",
      "31",
      "38",
      "21.721",
      21.721,
      "mmol/L",
      19,
      24,
      "NORMAL",
      "",
      11,
      "WEEK 20",
      140,
      "2014-05-21T10:58",
      140
    ],
    [
      "CDISCPILOT01",
      "LB",
      "01-701-1015",
      281,
      "MCHC",
      "Ery. Mean Corpuscular HGB Concentration",
      "HEMATOLOGY",
      "32",
      "g/dL",
      "31",
      "38",
      "19.8592",
      19.8592,
      "mmol/L",
      19,
      24,
      "NORMAL",
      "",
      12,
      "WEEK 24",
      168,
      "2014-06-18T13:00",
      168
    ],
    [
      "CDISCPILOT01",
      "LB",
      "01-701-1015",
      314,
      "MCHC",
      "Ery. Mean Corpuscular HGB Concentration",
      "HEMATOLOGY",
      "32",
      "g/dL",
      "31",
      "38",
      "19.8592",
      19.8592,
      "mmol/L",
      19,
      24,
      "NORMAL",
      "",
      13,
      "WEEK 26",
      182,
      "2014-07-02T11:45",
      182
    ],
    [
      "CDISCPILOT01",
      "LB",
      "01-701-1015",
      25,
      "MCV",
      "Ery. Mean Corpuscular Volume",
      "HEMATOLOGY",
      "80",
      "fL",
      "80",
      "100",
      "80",
      80,
      "fL",
      80,
      100,
      "NORMAL",
      "Y",
      1,
      "SCREENING 1",
      -7,
      "2013-12-26T14:45",
      -7
    ],
    [
      "CDISCPILOT01",
      "LB",
      "01-701-1015",
      62,
      "MCV",
      "Ery. Mean Corpuscular Volume",
      "HEMATOLOGY",
      "81",
      "fL",
      "80",
      "100",
      "81",
      81,
      "fL",
      80,
      100,
      "NORMAL",
      "",
      4,
      "WEEK 2",
      14,
      "2014-01-16T13:17",
      15
    ],
    [
      "CDISCPILOT01",
      "LB",
      "01-701-1015",
      95,
      "MCV",
      "Ery. Mean Corpuscular Volume",
      "HEMATOLOGY",
      "78",
      "fL",
      "80",
      "100",
      "78",
      78,
      "fL",
      80,
      100,
      "LOW",
      "",
      5,
      "WEEK 4",
      28,
      "2014-01-30T08:50",
      29
    ],
    [
      "CDISCPILOT01",
      "LB",
      "01-701-1015",
      125,
      "MCV",
      "Ery. Mean Corpuscular Volume",
      "HEMATOLOGY",
      "80",
      "fL",
      "80",
      "100",
      "80",
      80,
      "fL",
      80,
      100,
      "NORMAL",
      "",
      7,
      "WEEK 6",
      42,
      "2014-02-12T12:56",
      42
    ],
    [
      "CDISCPILOT01",
      "LB",
      "01-701-1015",
      155,
      "MCV",
      "Ery. Mean Corpuscular Volume",
      "HEMATOLOGY",
      "83",
      "fL",
      "80",
      "100",
      "83",
      83,
      "fL",
      80,
      100,
      "NORMAL",
      "",
      8,
      "WEEK 8",
      56,
      "2014-03-05T12:25",
      63
    ],
    [
      "CDISCPILOT01",
      "LB",
      "01-701-1015",
      187,
      "MCV",
      "Ery. Mean Corpuscular Volume",
      "HEMATOLOGY",
      "81",
      "fL",
      "80",
      "100",
      "81",
      81,
      "fL",
      80,
      100,
      "NORMAL",
      "",
      9,
      "WEEK 12",
      84,
      "2014-03-26T15:15",
      84
    ],
    [
      "CDISCPILOT01",
      "LB",
      "01-701-1015",
      220,
      "MCV",
      "Ery. Mean Corpuscular Volume",
      "HEMATOLOGY",
      "79",
      "fL",
      "80",
      "100",
      "79",
      79,
      "fL",
      80,
      100,
      "LOW",
      "",
      10,
      "WEEK 16",
      112,
      "2014-05-07T11:21",
      126
    ],
    [
      "CDISCPILOT01",
      "LB",
      "01-701-1015",
      250,
      "MCV",
      "Ery. Mean Corpuscular Volume",
      "HEMATOLOGY",
      "80",
      "fL",
      "80",
      "100",
      "80",
      80,
      "fL",
      80,
      100,
      "NORMAL",
      "",
      11,
      "WEEK 20",
      140,
      "2014-05-21T10:58",
      140
    ],
    [
      "CDISCPILOT01",
      "LB",
      "01-701-1015",
      282,
      "MCV",
      "Ery. Mean Corpuscular Volume",
      "HEMATOLOGY",
      "82",
      "fL",
      "80",
      "100",
      "82",
      82,
      "fL",
      80,
      100,
      "NORMAL",
      "",
      12,
      "WEEK 24",
      168,
      "2014-06-18T13:00",
      168
    ],
    [
      "CDISCPILOT01",
      "LB",
      "01-701-1015",
      315,
      "MCV",
      "Ery. Mean Corpuscular Volume",
      "HEMATOLOGY",
      "84",
      "fL",
      "80",
      "100",
      "84",
      84,
      "fL",
      80,
      100,
      "NORMAL",
      "",
      13,
      "WEEK 26",
      182,
      "2014-07-02T11:45",
      182
    ],
    [
      "CDISCPILOT01",
      "LB",
      "01-701-1015",
      26,
      "MONO",
      "Monocytes",
      "HEMATOLOGY",
      "0.22",
      "THOU/uL",
      "0.12",
      "0.92",
      "0.22",
      0.22,
      "GI/L",
      0.12,
      0.92,
      "NORMAL",
      "Y",
      1,
      "SCREENING 1",
      -7,
      "2013-12-26T14:45",
      -7
    ],
    [
      "CDISCPILOT01",
      "LB",
      "01-701-1015",
      63,
      "MONO",
      "Monocytes",
      "HEMATOLOGY",
      "0.26",
      "THOU/uL",
      "0.12",
      "0.92",
      "0.26",
      0.26,
      "GI/L",
      0.12,
      0.92,
      "NORMAL",
      "",
      4,
      "WEEK 2",
      14,
      "2014-01-16T13:17",
      15
    ],
    [
      "CDISCPILOT01",
      "LB",
      "01-701-1015",
      96,
      "MONO",
      "Monocytes",
      "HEMATOLOGY",
      "0.23",
      "THOU/uL",
      "0.12",
      "0.92",
      "0.23",
      0.23,
      "GI/L",
      0.12,
      0.92,
      "NORMAL",
      "",
      5,
      "WEEK 4",
      28,
      "2014-01-30T08:50",
      29
    ],
    [
      "CDISCPILOT01",
      "LB",
      "01-701-1015",
      126,
      "MONO",
      "Monocytes",
      "HEMATOLOGY",
      "0.28",
      "THOU/uL",
      "0.12",
      "0.92",
      "0.28",
      0.28,
      "GI/L",
      0.12,
      0.92,
      "NORMAL",
      "",
      7,
      "WEEK 6",
      42,
      "2014-02-12T12:56",
      42
    ],
    [
      "CDISCPILOT01",
      "LB",
      "01-701-1015",
      156,
      "MONO",
      "Monocytes",
      "HEMATOLOGY",
      "0.24",
      "THOU/uL",
      "0.12",
      "0.92",
      "0.24",
      0.24,
      "GI/L",
      0.12,
      0.92,
      "NORMAL",
      "",
      8,
      "WEEK 8",
      56,
      "2014-03-05T12:25",
      63
    ],
    [
      "CDISCPILOT01",
      "LB",
      "01-701-1015",
      188,
      "MONO",
      "Monocytes",
      "HEMATOLOGY",
      "0.24",
      "THOU/uL",
      "0.12",
      "0.92",
      "0.24",
      0.24,
      "GI/L",
      0.12,
      0.92,
      "NORMAL",
      "",
      9,
      "WEEK 12",
      84,
      "2014-03-26T15:15",
      84
    ],
    [
      "CDISCPILOT01",
      "LB",
      "01-701-1015",
      221,
      "MONO",
      "Monocytes",
      "HEMATOLOGY",
      "0.33",
      "THOU/uL",
      "0.12",
      "0.92",
      "0.33",
      0.33,
      "GI/L",
      0.12,
      0.92,
      "NORMAL",
      "",
      10,
      "WEEK 16",
      112,
      "2014-05-07T11:21",
      126
    ],
    [
      "CDISCPILOT01",
      "LB",
      "01-701-1015",
      251,
      "MONO",
      "Monocytes",
      "HEMATOLOGY",
      "0.28",
      "THOU/uL",
      "0.12",
      "0.92",
      "0.28",
      0.28,
      "GI/L",
      0.12,
      0.92,
      "NORMAL",
      "",
      11,
      "WEEK 20",
      140,
      "2014-05-21T10:58",
      140
    ],
    [
      "CDISCPILOT01",
      "LB",
      "01-701-1015",
      283,
      "MONO",
      "Monocytes",
      "HEMATOLOGY",
      "0.31",
      "THOU/uL",
      "0.12",
      "0.92",
      "0.31",
      0.31,
      "GI/L",
      0.12,
      0.92,
      "NORMAL",
      "",
      12,
      "WEEK 24",
      168,
      "2014-06-18T13:00",
      168
    ],
    [
      "CDISCPILOT01",
      "LB",
      "01-701-1015",
      316,
      "MONO",
      "Monocytes",
      "HEMATOLOGY",
      "0.31",
      "THOU/uL",
      "0.12",
      "0.92",
      "0.31",
      0.31,
      "GI/L",
      0.12,
      0.92,
      "NORMAL",
      "",
      13,
      "WEEK 26",
      182,
      "2014-07-02T11:45",
      182
    ],
    [
      "CDISCPILOT01",
      "LB",
      "01-701-1015",
      27,
      "SODIUM",
      "Sodium",
      "CHEMISTRY",
      "140",
      "mEq/L",
      "135",
      "145",
      "140",
      140,
      "mmol/L",
      135,
      145,
      "NORMAL",
      "Y",
      1,
      "SCREENING 1",
      -7,
      "2013-12-26T14:45",
      -7
    ],
    [
      "CDISCPILOT01",
      "LB",
      "01-701-1015",
      64,
      "SODIUM",
      "Sodium",
      "CHEMISTRY",
      "142",
      "mEq/L",
      "135",
      "145",
      "142",
      142,
      "mmol/L",
      135,
      145,
      "NORMAL",
      "",
      4,
      "WEEK 2",
      14,
      "2014-01-16T13:17",
      15
    ],
    [
      "CDISCPILOT01",
      "LB",
      "01-701-1015",
      97,
      "SODIUM",
      "Sodium",
      "CHEMISTRY",
      "140",
      "mEq/L",
      "135",
      "145",
      "140",
      140,
      "mmol/L",
      135,
      145,
      "NORMAL",
      "",
      5,
      "WEEK 4",
      28,
      "2014-01-30T08:50",
      29
    ],
    [
      "CDISCPILOT01",
      "LB",
      "01-701-1015",
      127,
      "SODIUM",
      "Sodium",
      "CHEMISTRY",
      "140",
      "mEq/L",
      "135",
      "145",
      "140",
      140,
      "mmol/L",
      135,
      145,
      "NORMAL",
      "",
      7,
      "WEEK 6",
      42,
      "2014-02-12T12:56",
      42
    ],
    [
      "CDISCPILOT01",
      "LB",
      "01-701-1015",
      157,
      "SODIUM",
      "Sodium",
      "CHEMISTRY",
      "141",
      "mEq/L",
      "135",
      "145",
      "141",
      141,
      "mmol/L",
      135,
      145,
      "NORMAL",
      "",
      8,
      "WEEK 8",
      56,
      "2014-03-05T12:25",
      63
    ],
    [
      "CDISCPILOT01",
      "LB",
      "01-701-1015",
      189,
      "SODIUM",
      "Sodium",
      "CHEMISTRY",
      "139",
      "mEq/L",
      "135",
      "145",
      "139",
      139,
      "mmol/L",
      135,
      145,
      "NORMAL",
      "",
      9,
      "WEEK 12",
      84,
      "2014-03-26T15:15",
      84
    ],
    [
      "CDISCPILOT01",
      "LB",
      "01-701-1015",
      222,
      "SODIUM",
      "Sodium",
      "CHEMISTRY",
      "141",
      "mEq/L",
      "135",
      "145",
      "141",
      141,
      "mmol/L",
      135,
      145,
      "NORMAL",
      "",
      10,
      "WEEK 16",
      112,
      "2014-05-07T11:21",
      126
    ],
    [
      "CDISCPILOT01",
      "LB",
      "01-701-1015",
      252,
      "SODIUM",
      "Sodium",
      "CHEMISTRY",
      "142",
      "mEq/L",
      "135",
      "145",
      "142",
      142,
      "mmol/L",
      135,
      145,
      "NORMAL",
      "",
      11,
      "WEEK 20",
      140,
      "2014-05-21T10:58",
      140
    ],
    [
      "CDISCPILOT01",
      "LB",
      "01-701-1015",
      284,
      "SODIUM",
      "Sodium",
      "CHEMISTRY",
      "140",
      "mEq/L",
      "135",
      "145",
      "140",
      140,
      "mmol/L",
      135,
      145,
      "NORMAL",
      "",
      12,
      "WEEK 24",
      168,
      "2014-06-18T13:00",
      168
    ],
    [
      "CDISCPILOT01",
      "LB",
      "01-701-1015",
      317,
      "SODIUM",
      "Sodium",
      "CHEMISTRY",
      "140",
      "mEq/L",
      "135",
      "145",
      "140",
      140,
      "mmol/L",
      135,
      145,
      "NORMAL",
      "",
      13,
      "WEEK 26",
      182,
      "2014-07-02T11:45",
      182
    ],
    [
      "CDISCPILOT01",
      "LB",
      "01-701-1015",
      28,
      "PH",
      "pH",
      "URINALYSIS",
      "5.0",
      "NO UNITS",
      "5",
      "8",
      "5",
      5,
      "",
      5,
      8,
      "NORMAL",
      "Y",
      1,
      "SCREENING 1",
      -7,
      "2013-12-26T14:45",
      -7
    ],
    [
      "CDISCPILOT01",
      "LB",
      "01-701-1015",
      65,
      "PH",
      "pH",
      "URINALYSIS",
      "5.0",
      "NO UNITS",
      "5",
      "8",
      "5",
      5,
      "",
      5,
      8,
      "NORMAL",
      "",
      4,
      "WEEK 2",
      14,
      "2014-01-16T13:17",
      15
    ],
    [
      "CDISCPILOT01",
      "LB",
      "01-701-1015",
      190,
      "PH",
      "pH",
      "URINALYSIS",
      "5.0",
      "NO UNITS",
      "5",
      "8",
      "5",
      5,
      "",
      5,
      8,
      "NORMAL",
      "",
      9,
      "WEEK 12",
      84,
      "2014-03-26T15:15",
      84
    ],
    [
      "CDISCPILOT01",
      "LB",
      "01-701-1015",
      285,
      "PH",
      "pH",
      "URINALYSIS",
      "5.0",
      "NO UNITS",
      "5",
      "8",
      "5",
      5,
      "",
      5,
      8,
      "NORMAL",
      "",
      12,
      "WEEK 24",
      168,
      "2014-06-18T13:00",
      168
    ],
    [
      "CDISCPILOT01",
      "LB",
      "01-701-1015",
      29,
      "PHOS",
      "Phosphate",
      "CHEMISTRY",
      "3.8",
      "mg/dL",
      "2.2",
      "5.1",
      "1.22702",
      1.22702,
      "mmol/L",
      0.71,
      1.65,
      "NORMAL",
      "Y",
      1,
      "SCREENING 1",
      -7,
      "2013-12-26T14:45",
      -7
    ],
    [
      "CDISCPILOT01",
      "LB",
      "01-701-1015",
      66,
      "PHOS",
      "Phosphate",
      "CHEMISTRY",
      "3.9",
      "mg/dL",
      "2.2",
      "5.1",
      "1.25931",
      1.25931,
      "mmol/L",
      0.71,
      1.65,
      "NORMAL",
      "",
      4,
      "WEEK 2",
      14,
      "2014-01-16T13:17",
      15
    ],
    [
      "CDISCPILOT01",
      "LB",
      "01-701-1015",
      98,
      "PHOS",
      "Phosphate",
      "CHEMISTRY",
      "3.5",
      "mg/dL",
      "2.2",
      "5.1",
      "1.13015",
      1.13015,
      "mmol/L",
      0.71,
      1.65,
      "NORMAL",
      "",
      5,
      "WEEK 4",
      28,
      "2014-01-30T08:50",
      29
    ],
    [
      "CDISCPILOT01",
      "LB",
      "01-701-1015",
      128,
      "PHOS",
      "Phosphate",
      "CHEMISTRY",
      "3.8",
      "mg/dL",
      "2.2",
      "5.1",
      "1.22702",
      1.22702,
      "mmol/L",
      0.71,
      1.65,
      "NORMAL",
      "",
      7,
      "WEEK 6",
      42,
      "2014-02-12T12:56",
      42
    ],
    [
      "CDISCPILOT01",
      "LB",
      "01-701-1015",
      158,
      "PHOS",
      "Phosphate",
      "CHEMISTRY",
      "3.6",
      "mg/dL",
      "2.2",
      "5.1",
      "1.16244",
      1.16244,
      "mmol/L",
      0.71,
      1.65,
      "NORMAL",
      "",
      8,
      "WEEK 8",
      56,
      "2014-03-05T12:25",
      63
    ],
    [
      "CDISCPILOT01",
      "LB",
      "01-701-1015",
      191,
      "PHOS",
      "Phosphate",
      "CHEMISTRY",
      "3.8",
      "mg/dL",
      "2.2",
      "5.1",
      "1.22702",
      1.22702,
      "mmol/L",
      0.71,
      1.65,
      "NORMAL",
      "",
      9,
      "WEEK 12",
      84,
      "2014-03-26T15:15",
      84
    ],
    [
      "CDISCPILOT01",
      "LB",
      "01-701-1015",
      223,
      "PHOS",
      "Phosphate",
      "CHEMISTRY",
      "4.0",
      "mg/dL",
      "2.2",
      "5.1",
      "1.2916",
      1.2916,
      "mmol/L",
      0.71,
      1.65,
      "NORMAL",
      "",
      10,
      "WEEK 16",
      112,
      "2014-05-07T11:21",
      126
    ],
    [
      "CDISCPILOT01",
      "LB",
      "01-701-1015",
      253,
      "PHOS",
      "Phosphate",
      "CHEMISTRY",
      "3.4",
      "mg/dL",
      "2.2",
      "5.1",
      "1.09786",
      1.09786,
      "mmol/L",
      0.71,
      1.65,
      "NORMAL",
      "",
      11,
      "WEEK 20",
      140,
      "2014-05-21T10:58",
      140
    ],
    [
      "CDISCPILOT01",
      "LB",
      "01-701-1015",
      286,
      "PHOS",
      "Phosphate",
      "CHEMISTRY",
      "3.9",
      "mg/dL",
      "2.2",
      "5.1",
      "1.25931",
      1.25931,
      "mmol/L",
      0.71,
      1.65,
      "NORMAL",
      "",
      12,
      "WEEK 24",
      168,
      "2014-06-18T13:00",
      168
    ],
    [
      "CDISCPILOT01",
      "LB",
      "01-701-1015",
      318,
      "PHOS",
      "Phosphate",
      "CHEMISTRY",
      "4.2",
      "mg/dL",
      "2.2",
      "5.1",
      "1.35618",
      1.35618,
      "mmol/L",
      0.71,
      1.65,
      "NORMAL",
      "",
      13,
      "WEEK 26",
      182,
      "2014-07-02T11:45",
      182
    ],
    [
      "CDISCPILOT01",
      "LB",
      "01-701-1015",
      30,
      "PLAT",
      "Platelet",
      "HEMATOLOGY",
      "266",
      "THOU/uL",
      "130",
      "394",
      "266",
      266,
      "GI/L",
      130,
      394,
      "NORMAL",
      "Y",
      1,
      "SCREENING 1",
      -7,
      "2013-12-26T14:45",
      -7
    ],
    [
      "CDISCPILOT01",
      "LB",
      "01-701-1015",
      67,
      "PLAT",
      "Platelet",
      "HEMATOLOGY",
      "306",
      "THOU/uL",
      "130",
      "394",
      "306",
      306,
      "GI/L",
      130,
      394,
      "NORMAL",
      "",
      4,
      "WEEK 2",
      14,
      "2014-01-16T13:17",
      15
    ],
    [
      "CDISCPILOT01",
      "LB",
      "01-701-1015",
      99,
      "PLAT",
      "Platelet",
      "HEMATOLOGY",
      "238",
      "THOU/uL",
      "130",
      "394",
      "238",
      238,
      "GI/L",
      130,
      394,
      "NORMAL",
      "",
      5,
      "WEEK 4",
      28,
      "2014-01-30T08:50",
      29
    ],
    [
      "CDISCPILOT01",
      "LB",
      "01-701-1015",
      129,
      "PLAT",
      "Platelet",
      "HEMATOLOGY",
      "237",
      "THOU/uL",
      "130",
      "394",
      "237",
      237,
      "GI/L",
      130,
      394,
      "NORMAL",
      "",
      7,
      "WEEK 6",
      42,
      "2014-02-12T12:56",
      42
    ],
    [
      "CDISCPILOT01",
      "LB",
      "01-701-1015",
      159,
      "PLAT",
      "Platelet",
      "HEMATOLOGY",
      "266",
      "THOU/uL",
      "130",
      "394",
      "266",
      266,
      "GI/L",
      130,
      394,
      "NORMAL",
      "",
      8,
      "WEEK 8",
      56,
      "2014-03-05T12:25",
      63
    ],
    [
      "CDISCPILOT01",
      "LB",
      "01-701-1015",
      192,
      "PLAT",
      "Platelet",
      "HEMATOLOGY",
      "260",
      "THOU/uL",
      "130",
      "394",
      "260",
      260,
      "GI/L",
      130,
      394,
      "NORMAL",
      "",
      9,
      "WEEK 12",
      84,
      "2014-03-26T15:15",
      84
    ],
    [
      "CDISCPILOT01",
      "LB",
      "01-701-1015",
      224,
      "PLAT",
      "Platelet",
      "HEMATOLOGY",
      "266",
      "THOU/uL",
      "130",
      "394",
      "266",
      266,
      "GI/L",
      130,
      394,
      "NORMAL",
      "",
      10,
      "WEEK 16",
      112,
      "2014-05-07T11:21",
      126
    ],
    [
      "CDISCPILOT01",
      "LB",
      "01-701-1015",
      254,
      "PLAT",
      "Platelet",
      "HEMATOLOGY",
      "233",
      "THOU/uL",
      "130",
      "394",
      "233",
      233,
      "GI/L",
      130,
      394,
      "NORMAL",
      "",
      11,
      "WEEK 20",
      140,
      "2014-05-21T10:58",
      140
    ],
    [
      "CDISCPILOT01",
      "LB",
      "01-701-1015",
      287,
      "PLAT",
      "Platelet",
      "HEMATOLOGY",
      "259",
      "THOU/uL",
      "130",
      "394",
      "259",
      259,
      "GI/L",
      130,
      394,
      "NORMAL",
      "",
      12,
      "WEEK 24",
      168,
      "2014-06-18T13:00",
      168
    ],
    [
      "CDISCPILOT01",
      "LB",
      "01-701-1015",
      319,
      "PLAT",
      "Platelet",
      "HEMATOLOGY",
      "300",
      "THOU/uL",
      "130",
      "394",
      "300",
      300,
      "GI/L",
      130,
      394,
      "NORMAL",
      "",
      13,
      "WEEK 26",
      182,
      "2014-07-02T11:45",
      182
    ],
    [
      "CDISCPILOT01",
      "LB",
      "01-701-1015",
      31,
      "PROT",
      "Protein",
      "CHEMISTRY",
      "6.1",
      "g/dL",
      "6",
      "8",
      "61",
      61,
      "g/L",
      60,
      80,
      "NORMAL",
      "Y",
      1,
      "SCREENING 1",
      -7,
      "2013-12-26T14:45",
      -7
    ],
    [
      "CDISCPILOT01",
      "LB",
      "01-701-1015",
      68,
      "PROT",
      "Protein",
      "CHEMISTRY",
      "7.7",
      "g/dL",
      "6",
      "8",
      "77",
      77,
      "g/L",
      60,
      80,
      "NORMAL",
      "",
      4,
      "WEEK 2",
      14,
      "2014-01-16T13:17",
      15
    ],
    [
      "CDISCPILOT01",
      "LB",
      "01-701-1015",
      100,
      "PROT",
      "Protein",
      "CHEMISTRY",
      "6.9",
      "g/dL",
      "6",
      "8",
      "69",
      69,
      "g/L",
      60,
      80,
      "NORMAL",
      "",
      5,
      "WEEK 4",
      28,
      "2014-01-30T08:50",
      29
    ],
    [
      "CDISCPILOT01",
      "LB",
      "01-701-1015",
      130,
      "PROT",
      "Protein",
      "CHEMISTRY",
      "6.8",
      "g/dL",
      "6",
      "8",
      "68",
      68,
      "g/L",
      60,
      80,
      "NORMAL",
      "",
      7,
      "WEEK 6",
      42,
      "2014-02-12T12:56",
      42
    ],
    [
      "CDISCPILOT01",
      "LB",
      "01-701-1015",
      160,
      "PROT",
      "Protein",
      "CHEMISTRY",
      "6.9",
      "g/dL",
      "6",
      "8",
      "69",
      69,
      "g/L",
      60,
      80,
      "NORMAL",
      "",
      8,
      "WEEK 8",
      56,
      "2014-03-05T12:25",
      63
    ],
    [
      "CDISCPILOT01",
      "LB",
      "01-701-1015",
      193,
      "PROT",
      "Protein",
      "CHEMISTRY",
      "7.0",
      "g/dL",
      "6",
      "8",
      "70",
      70,
      "g/L",
      60,
      80,
      "NORMAL",
      "",
      9,
      "WEEK 12",
      84,
      "2014-03-26T15:15",
      84
    ],
    [
      "CDISCPILOT01",
      "LB",
      "01-701-1015",
      225,
      "PROT",
      "Protein",
      "CHEMISTRY",
      "6.8",
      "g/dL",
      "6",
      "8",
      "68",
      68,
      "g/L",
      60,
      80,
      "NORMAL",
      "",
      10,
      "WEEK 16",
      112,
      "2014-05-07T11:21",
      126
    ],
    [
      "CDISCPILOT01",
      "LB",
      "01-701-1015",
      255,
      "PROT",
      "Protein",
      "CHEMISTRY",
      "6.8",
      "g/dL",
      "6",
      "8",
      "68",
      68,
      "g/L",
      60,
      80,
      "NORMAL",
      "",
      11,
      "WEEK 20",
      140,
      "2014-05-21T10:58",
      140
    ],
    [
      "CDISCPILOT01",
      "LB",
      "01-701-1015",
      288,
      "PROT",
      "Protein",
      "CHEMISTRY",
      "6.6",
      "g/dL",
      "6",
      "8",
      "66",
      66,
      "g/L",
      60,
      80,
      "NORMAL",
      "",
      12,
      "WEEK 24",
      168,
      "2014-06-18T13:00",
      168
    ],
    [
      "CDISCPILOT01",
      "LB",
      "01-701-1015",
      320,
      "PROT",
      "Protein",
      "CHEMISTRY",
      "6.9",
      "g/dL",
      "6",
      "8",
      "69",
      69,
      "g/L",
      60,
      80,
      "NORMAL",
      "",
      13,
      "WEEK 26",
      182,
      "2014-07-02T11:45",
      182
    ],
    [
      "CDISCPILOT01",
      "LB",
      "01-701-1015",
      32,
      "RBC",
      "Erythrocytes",
      "HEMATOLOGY",
      "5.30",
      "MILL/uL",
      "3.9",
      "5.5",
      "5.3",
      5.3,
      "TI/L",
      3.9,
      5.5,
      "NORMAL",
      "Y",
      1,
      "SCREENING 1",
      -7,
      "2013-12-26T14:45",
      -7
    ],
    [
      "CDISCPILOT01",
      "LB",
      "01-701-1015",
      69,
      "RBC",
      "Erythrocytes",
      "HEMATOLOGY",
      "5.30",
      "MILL/uL",
      "3.9",
      "5.5",
      "5.3",
      5.3,
      "TI/L",
      3.9,
      5.5,
      "NORMAL",
      "",
      4,
      "WEEK 2",
      14,
      "2014-01-16T13:17",
      15
    ],
    [
      "CDISCPILOT01",
      "LB",
      "01-701-1015",
      101,
      "RBC",
      "Erythrocytes",
      "HEMATOLOGY",
      "5.00",
      "MILL/uL",
      "3.9",
      "5.5",
      "5",
      5,
      "TI/L",
      3.9,
      5.5,
      "NORMAL",
      "",
      5,
      "WEEK 4",
      28,
      "2014-01-30T08:50",
      29
    ],
    [
      "CDISCPILOT01",
      "LB",
      "01-701-1015",
      131,
      "RBC",
      "Erythrocytes",
      "HEMATOLOGY",
      "5.10",
      "MILL/uL",
      "3.9",
      "5.5",
      "5.1",
      5.1,
      "TI/L",
      3.9,
      5.5,
      "NORMAL",
      "",
      7,
      "WEEK 6",
      42,
      "2014-02-12T12:56",
      42
    ],
    [
      "CDISCPILOT01",
      "LB",
      "01-701-1015",
      161,
      "RBC",
      "Erythrocytes",
      "HEMATOLOGY",
      "5.10",
      "MILL/uL",
      "3.9",
      "5.5",
      "5.1",
      5.1,
      "TI/L",
      3.9,
      5.5,
      "NORMAL",
      "",
      8,
      "WEEK 8",
      56,
      "2014-03-05T12:25",
      63
    ],
    [
      "CDISCPILOT01",
      "LB",
      "01-701-1015",
      194,
      "RBC",
      "Erythrocytes",
      "HEMATOLOGY",
      "5.00",
      "MILL/uL",
      "3.9",
      "5.5",
      "5",
      5,
      "TI/L",
      3.9,
      5.5,
      "NORMAL",
      "",
      9,
      "WEEK 12",
      84,
      "2014-03-26T15:15",
      84
    ],
    [
      "CDISCPILOT01",
      "LB",
      "01-701-1015",
      226,
      "RBC",
      "Erythrocytes",
      "HEMATOLOGY",
      "5.20",
      "MILL/uL",
      "3.9",
      "5.5",
      "5.2",
      5.2,
      "TI/L",
      3.9,
      5.5,
      "NORMAL",
      "",
      10,
      "WEEK 16",
      112,
      "2014-05-07T11:21",
      126
    ],
    [
      "CDISCPILOT01",
      "LB",
      "01-701-1015",
      256,
      "RBC",
      "Erythrocytes",
      "HEMATOLOGY",
      "4.90",
      "MILL/uL",
      "3.9",
      "5.5",
      "4.9",
      4.9,
      "TI/L",
      3.9,
      5.5,
      "NORMAL",
      "",
      11,
      "WEEK 20",
      140,
      "2014-05-21T10:58",
      140
    ],
    [
      "CDISCPILOT01",
      "LB",
      "01-701-1015",
      289,
      "RBC",
      "Erythrocytes",
      "HEMATOLOGY",
      "5.30",
      "MILL/uL",
      "3.9",
      "5.5",
      "5.3",
      5.3,
      "TI/L",
      3.9,
      5.5,
      "NORMAL",
      "",
      12,
      "WEEK 24",
      168,
      "2014-06-18T13:00",
      168
    ],
    [
      "CDISCPILOT01",
      "LB",
      "01-701-1015",
      321,
      "RBC",
      "Erythrocytes",
      "HEMATOLOGY",
      "5.40",
      "MILL/uL",
      "3.9",
      "5.5",
      "5.4",
      5.4,
      "TI/L",
      3.9,
      5.5,
      "NORMAL",
      "",
      13,
      "WEEK 26",
      182,
      "2014-07-02T11:45",
      182
    ],
    [
      "CDISCPILOT01",
      "LB",
      "01-701-1015",
      33,
      "SPGRAV",
      "Specific Gravity",
      "URINALYSIS",
      "1.013",
      "NO UNITS",
      "1.006",
      "1.03",
      "1.013",
      1.013,
      "",
      1.006,
      1.03,
      "NORMAL",
      "Y",
      1,
      "SCREENING 1",
      -7,
      "2013-12-26T14:45",
      -7
    ],
    [
      "CDISCPILOT01",
      "LB",
      "01-701-1015",
      70,
      "SPGRAV",
      "Specific Gravity",
      "URINALYSIS",
      "1.007",
      "NO UNITS",
      "1.006",
      "1.03",
      "1.007",
      1.007,
      "",
      1.006,
      1.03,
      "NORMAL",
      "",
      4,
      "WEEK 2",
      14,
      "2014-01-16T13:17",
      15
    ],
    [
      "CDISCPILOT01",
      "LB",
      "01-701-1015",
      195,
      "SPGRAV",
      "Specific Gravity",
      "URINALYSIS",
      "1.011",
      "NO UNITS",
      "1.006",
      "1.03",
      "1.011",
      1.011,
      "",
      1.006,
      1.03,
      "NORMAL",
      "",
      9,
      "WEEK 12",
      84,
      "2014-03-26T15:15",
      84
    ],
    [
      "CDISCPILOT01",
      "LB",
      "01-701-1015",
      290,
      "SPGRAV",
      "Specific Gravity",
      "URINALYSIS",
      "1.005",
      "NO UNITS",
      "1.006",
      "1.03",
      "1.005",
      1.005,
      "",
      1.006,
      1.03,
      "LOW",
      "",
      12,
      "WEEK 24",
      168,
      "2014-06-18T13:00",
      168
    ],
    [
      "CDISCPILOT01",
      "LB",
      "01-701-1015",
      34,
      "TSH",
      "Thyrotropin",
      "OTHER",
      "1.68",
      "uIU/mL",
      "0.32",
      "5",
      "1.68",
      1.68,
      "mU/L",
      0.32,
      5,
      "NORMAL",
      "Y",
      1,
      "SCREENING 1",
      -7,
      "2013-12-26T14:45",
      -7
    ],
    [
      "CDISCPILOT01",
      "LB",
      "01-701-1015",
      35,
      "URATE",
      "Urate",
      "CHEMISTRY",
      "4.5",
      "mg/dL",
      "2.5",
      "7.5",
      "267.66",
      267.66,
      "umol/L",
      149,
      446,
      "NORMAL",
      "Y",
      1,
      "SCREENING 1",
      -7,
      "2013-12-26T14:45",
      -7
    ],
    [
      "CDISCPILOT01",
      "LB",
      "01-701-1015",
      71,
      "URATE",
      "Urate",
      "CHEMISTRY",
      "4.9",
      "mg/dL",
      "2.5",
      "7.5",
      "291.452",
      291.452,
      "umol/L",
      149,
      446,
      "NORMAL",
      "",
      4,
      "WEEK 2",
      14,
      "2014-01-16T13:17",
      15
    ],
    [
      "CDISCPILOT01",
      "LB",
      "01-701-1015",
      102,
      "URATE",
      "Urate",
      "CHEMISTRY",
      "4.4",
      "mg/dL",
      "2.5",
      "7.5",
      "261.712",
      261.712,
      "umol/L",
      149,
      446,
      "NORMAL",
      "",
      5,
      "WEEK 4",
      28,
      "2014-01-30T08:50",
      29
    ],
    [
      "CDISCPILOT01",
      "LB",
      "01-701-1015",
      132,
      "URATE",
      "Urate",
      "CHEMISTRY",
      "4.6",
      "mg/dL",
      "2.5",
      "7.5",
      "273.608",
      273.608,
      "umol/L",
      149,
      446,
      "NORMAL",
      "",
      7,
      "WEEK 6",
      42,
      "2014-02-12T12:56",
      42
    ],
    [
      "CDISCPILOT01",
      "LB",
      "01-701-1015",
      162,
      "URATE",
      "Urate",
      "CHEMISTRY",
      "4.6",
      "mg/dL",
      "2.5",
      "7.5",
      "273.608",
      273.608,
      "umol/L",
      149,
      446,
      "NORMAL",
      "",
      8,
      "WEEK 8",
      56,
      "2014-03-05T12:25",
      63
    ],
    [
      "CDISCPILOT01",
      "LB",
      "01-701-1015",
      196,
      "URATE",
      "Urate",
      "CHEMISTRY",
      "4.4",
      "mg/dL",
      "2.5",
      "7.5",
      "261.712",
      261.712,
      "umol/L",
      149,
      446,
      "NORMAL",
      "",
      9,
      "WEEK 12",
      84,
      "2014-03-26T15:15",
      84
    ],
    [
      "CDISCPILOT01",
      "LB",
      "01-701-1015",
      227,
      "URATE",
      "Urate",
      "CHEMISTRY",
      "4.3",
      "mg/dL",
      "2.5",
      "7.5",
      "255.764",
      255.764,
      "umol/L",
      149,
      446,
      "NORMAL",
      "",
      10,
      "WEEK 16",
      112,
      "2014-05-07T11:21",
      126
    ],
    [
      "CDISCPILOT01",
      "LB",
      "01-701-1015",
      257,
      "URATE",
      "Urate",
      "CHEMISTRY",
      "4.7",
      "mg/dL",
      "2.5",
      "7.5",
      "279.556",
      279.556,
      "umol/L",
      149,
      446,
      "NORMAL",
      "",
      11,
      "WEEK 20",
      140,
      "2014-05-21T10:58",
      140
    ],
    [
      "CDISCPILOT01",
      "LB",
      "01-701-1015",
      291,
      "URATE",
      "Urate",
      "CHEMISTRY",
      "5.1",
      "mg/dL",
      "2.5",
      "7.5",
      "303.348",
      303.348,
      "umol/L",
      149,
      446,
      "NORMAL",
      "",
      12,
      "WEEK 24",
      168,
      "2014-06-18T13:00",
      168
    ],
    [
      "CDISCPILOT01",
      "LB",
      "01-701-1015",
      322,
      "URATE",
      "Urate",
      "CHEMISTRY",
      "5.2",
      "mg/dL",
      "2.5",
      "7.5",
      "309.296",
      309.296,
      "umol/L",
      149,
      446,
      "NORMAL",
      "",
      13,
      "WEEK 26",
      182,
      "2014-07-02T11:45",
      182
    ],
    [
      "CDISCPILOT01",
      "LB",
      "01-701-1015",
      36,
      "UROBIL",
      "Urobilinogen",
      "URINALYSIS",
      "0",
      "NO UNITS",
      "",
      "",
      "0",
      0,
      "",
      null,
      null,
      "NORMAL",
      "Y",
      1,
      "SCREENING 1",
      -7,
      "2013-12-26T14:45",
      -7
    ],
    [
      "CDISCPILOT01",
      "LB",
      "01-701-1015",
      72,
      "UROBIL",
      "Urobilinogen",
      "URINALYSIS",
      "0",
      "NO UNITS",
      "",
      "",
      "0",
      0,
      "",
      null,
      null,
      "NORMAL",
      "",
      4,
      "WEEK 2",
      14,
      "2014-01-16T13:17",
      15
    ],
    [
      "CDISCPILOT01",
      "LB",
      "01-701-1015",
      197,
      "UROBIL",
      "Urobilinogen",
      "URINALYSIS",
      "0",
      "NO UNITS",
      "",
      "",
      "0",
      0,
      "",
      null,
      null,
      "NORMAL",
      "",
      9,
      "WEEK 12",
      84,
      "2014-03-26T15:15",
      84
    ],
    [
      "CDISCPILOT01",
      "LB",
      "01-701-1015",
      292,
      "UROBIL",
      "Urobilinogen",
      "URINALYSIS",
      "0",
      "NO UNITS",
      "",
      "",
      "0",
      0,
      "",
      null,
      null,
      "NORMAL",
      "",
      12,
      "WEEK 24",
      168,
      "2014-06-18T13:00",
      168
    ],
    [
      "CDISCPILOT01",
      "LB",
      "01-701-1015",
      37,
      "VITB12",
      "Vitamin B12",
      "OTHER",
      "399",
      "pg/mL",
      "200",
      "900",
      "294.3822",
      294.3822,
      "pmol/L",
      148,
      664,
      "NORMAL",
      "Y",
      1,
      "SCREENING 1",
      -7,
      "2013-12-26T14:45",
      -7
    ],
    [
      "CDISCPILOT01",
      "LB",
      "01-701-1015",
      38,
      "WBC",
      "Leukocytes",
      "HEMATOLOGY",
      "5.78",
      "THOU/uL",
      "3.8",
      "10.7",
      "5.78",
      5.78,
      "GI/L",
      3.8,
      10.7,
      "NORMAL",
      "Y",
      1,
      "SCREENING 1",
      -7,
      "2013-12-26T14:45",
      -7
    ],
    [
      "CDISCPILOT01",
      "LB",
      "01-701-1015",
      73,
      "WBC",
      "Leukocytes",
      "HEMATOLOGY",
      "5.33",
      "THOU/uL",
      "3.8",
      "10.7",
      "5.33",
      5.33,
      "GI/L",
      3.8,
      10.7,
      "NORMAL",
      "",
      4,
      "WEEK 2",
      14,
      "2014-01-16T13:17",
      15
    ],
    [
      "CDISCPILOT01",
      "LB",
      "01-701-1015",
      103,
      "WBC",
      "Leukocytes",
      "HEMATOLOGY",
      "4.54",
      "THOU/uL",
      "3.8",
      "10.7",
      "4.54",
      4.54,
      "GI/L",
      3.8,
      10.7,
      "NORMAL",
      "",
      5,
      "WEEK 4",
      28,
      "2014-01-30T08:50",
      29
    ],
    [
      "CDISCPILOT01",
      "LB",
      "01-701-1015",
      133,
      "WBC",
      "Leukocytes",
      "HEMATOLOGY",
      "4.25",
      "THOU/uL",
      "3.8",
      "10.7",
      "4.25",
      4.25,
      "GI/L",
      3.8,
      10.7,
      "NORMAL",
      "",
      7,
      "WEEK 6",
      42,
      "2014-02-12T12:56",
      42
    ],
    [
      "CDISCPILOT01",
      "LB",
      "01-701-1015",
      163,
      "WBC",
      "Leukocytes",
      "HEMATOLOGY",
      "5.35",
      "THOU/uL",
      "3.8",
      "10.7",
      "5.35",
      5.35,
      "GI/L",
      3.8,
      10.7,
      "NORMAL",
      "",
      8,
      "WEEK 8",
      56,
      "2014-03-05T12:25",
      63
    ],
    [
      "CDISCPILOT01",
      "LB",
      "01-701-1015",
      198,
      "WBC",
      "Leukocytes",
      "HEMATOLOGY",
      "5.24",
      "THOU/uL",
      "3.8",
      "10.7",
      "5.24",
      5.24,
      "GI/L",
      3.8,
      10.7,
      "NORMAL",
      "",
      9,
      "WEEK 12",
      84,
      "2014-03-26T15:15",
      84
    ],
    [
      "CDISCPILOT01",
      "LB",
      "01-701-1015",
      228,
      "WBC",
      "Leukocytes",
      "HEMATOLOGY",
      "5.62",
      "THOU/uL",
      "3.8",
      "10.7",
      "5.62",
      5.62,
      "GI/L",
      3.8,
      10.7,
      "NORMAL",
      "",
      10,
      "WEEK 16",
      112,
      "2014-05-07T11:21",
      126
    ],
    [
      "CDISCPILOT01",
      "LB",
      "01-701-1015",
      258,
      "WBC",
      "Leukocytes",
      "HEMATOLOGY",
      "4.36",
      "THOU/uL",
      "3.8",
      "10.7",
      "4.36",
      4.36,
      "GI/L",
      3.8,
      10.7,
      "NORMAL",
      "",
      11,
      "WEEK 20",
      140,
      "2014-05-21T10:58",
      140
    ],
    [
      "CDISCPILOT01",
      "LB",
      "01-701-1015",
      293,
      "WBC",
      "Leukocytes",
      "HEMATOLOGY",
      "7.23",
      "THOU/uL",
      "3.8",
      "10.7",
      "7.23",
      7.23,
      "GI/L",
      3.8,
      10.7,
      "NORMAL",
      "",
      12,
      "WEEK 24",
      168,
      "2014-06-18T13:00",
      168
    ],
    [
      "CDISCPILOT01",
      "LB",
      "01-701-1015",
      323,
      "WBC",
      "Leukocytes",
      "HEMATOLOGY",
      "5.43",
      "THOU/uL",
      "3.8",
      "10.7",
      "5.43",
      5.43,
      "GI/L",
      3.8,
      10.7,
      "NORMAL",
      "",
      13,
      "WEEK 26",
      182,
      "2014-07-02T11:45",
      182
    ],
    [
      "CDISCPILOT01",
      "LB",
      "01-701-1023",
      1,
      "ALB",
      "Albumin",
      "CHEMISTRY",
      "4.0",
      "g/dL",
      "3.3",
      "4.9",
      "40",
      40,
      "g/L",
      33,
      49,
      "NORMAL",
      "Y",
      1,
      "SCREENING 1",
      -7,
      "2012-07-22T12:13",
      -14
    ],
    [
      "CDISCPILOT01",
      "LB",
      "01-701-1023",
      38,
      "ALB",
      "Albumin",
      "CHEMISTRY",
      "3.6",
      "g/dL",
      "3.3",
      "4.9",
      "36",
      36,
      "g/L",
      33,
      49,
      "NORMAL",
      "",
      4,
      "WEEK 2",
      14,
      "2012-08-27T15:47",
      23
    ],
    [
      "CDISCPILOT01",
      "LB",
      "01-701-1023",
      73,
      "ALB",
      "Albumin",
      "CHEMISTRY",
      "3.5",
      "g/dL",
      "3.3",
      "4.9",
      "35",
      35,
      "g/L",
      33,
      49,
      "NORMAL",
      "",
      5,
      "WEEK 4",
      28,
      "2012-09-02T10:15",
      29
    ],
    [
      "CDISCPILOT01",
      "LB",
      "01-701-1023",
      2,
      "ALP",
      "Alkaline Phosphatase",
      "CHEMISTRY",
      "98",
      "U/L",
      "35",
      "115",
      "98",
      98,
      "U/L",
      35,
      115,
      "NORMAL",
      "Y",
      1,
      "SCREENING 1",
      -7,
      "2012-07-22T12:13",
      -14
    ],
    [
      "CDISCPILOT01",
      "LB",
      "01-701-1023",
      39,
      "ALP",
      "Alkaline Phosphatase",
      "CHEMISTRY",
      "90",
      "U/L",
      "35",
      "115",
      "90",
      90,
      "U/L",
      35,
      115,
      "NORMAL",
      "",
      4,
      "WEEK 2",
      14,
      "2012-08-27T15:47",
      23
    ],
    [
      "CDISCPILOT01",
      "LB",
      "01-701-1023",
      74,
      "ALP",
      "Alkaline Phosphatase",
      "CHEMISTRY",
      "99",
      "U/L",
      "35",
      "115",
      "99",
      99,
      "U/L",
      35,
      115,
      "NORMAL",
      "",
      5,
      "WEEK 4",
      28,
      "2012-09-02T10:15",
      29
    ],
    [
      "CDISCPILOT01",
      "LB",
      "01-701-1023",
      3,
      "ALT",
      "Alanine Aminotransferase",
      "CHEMISTRY",
      "23",
      "U/L",
      "6",
      "43",
      "23",
      23,
      "U/L",
      6,
      43,
      "NORMAL",
      "Y",
      1,
      "SCREENING 1",
      -7,
      "2012-07-22T12:13",
      -14
    ],
    [
      "CDISCPILOT01",
      "LB",
      "01-701-1023",
      40,
      "ALT",
      "Alanine Aminotransferase",
      "CHEMISTRY",
      "30",
      "U/L",
      "6",
      "43",
      "30",
      30,
      "U/L",
      6,
      43,
      "NORMAL",
      "",
      4,
      "WEEK 2",
      14,
      "2012-08-27T15:47",
      23
    ],
    [
      "CDISCPILOT01",
      "LB",
      "01-701-1023",
      75,
      "ALT",
      "Alanine Aminotransferase",
      "CHEMISTRY",
      "38",
      "U/L",
      "6",
      "43",
      "38",
      38,
      "U/L",
      6,
      43,
      "NORMAL",
      "",
      5,
      "WEEK 4",
      28,
      "2012-09-02T10:15",
      29
    ],
    [
      "CDISCPILOT01",
      "LB",
      "01-701-1023",
      4,
      "AST",
      "Aspartate Aminotransferase",
      "CHEMISTRY",
      "21",
      "U/L",
      "11",
      "36",
      "21",
      21,
      "U/L",
      11,
      36,
      "NORMAL",
      "Y",
      1,
      "SCREENING 1",
      -7,
      "2012-07-22T12:13",
      -14
    ],
    [
      "CDISCPILOT01",
      "LB",
      "01-701-1023",
      41,
      "AST",
      "Aspartate Aminotransferase",
      "CHEMISTRY",
      "25",
      "U/L",
      "11",
      "36",
      "25",
      25,
      "U/L",
      11,
      36,
      "NORMAL",
      "",
      4,
      "WEEK 2",
      14,
      "2012-08-27T15:47",
      23
    ],
    [
      "CDISCPILOT01",
      "LB",
      "01-701-1023",
      76,
      "AST",
      "Aspartate Aminotransferase",
      "CHEMISTRY",
      "30",
      "U/L",
      "11",
      "36",
      "30",
      30,
      "U/L",
      11,
      36,
      "NORMAL",
      "",
      5,
      "WEEK 4",
      28,
      "2012-09-02T10:15",
      29
    ],
    [
      "CDISCPILOT01",
      "LB",
      "01-701-1023",
      5,
      "BASO",
      "Basophils",
      "HEMATOLOGY",
      "0.06",
      "THOU/uL",
      "0",
      "0.2",
      "0.06",
      0.06,
      "GI/L",
      0,
      0.2,
      "NORMAL",
      "Y",
      1,
      "SCREENING 1",
      -7,
      "2012-07-22T12:13",
      -14
    ],
    [
      "CDISCPILOT01",
      "LB",
      "01-701-1023",
      42,
      "BASO",
      "Basophils",
      "HEMATOLOGY",
      "0.03",
      "THOU/uL",
      "0",
      "0.2",
      "0.03",
      0.03,
      "GI/L",
      0,
      0.2,
      "NORMAL",
      "",
      4,
      "WEEK 2",
      14,
      "2012-08-27T15:47",
      23
    ],
    [
      "CDISCPILOT01",
      "LB",
      "01-701-1023",
      77,
      "BASO",
      "Basophils",
      "HEMATOLOGY",
      "0.04",
      "THOU/uL",
      "0",
      "0.2",
      "0.04",
      0.04,
      "GI/L",
      0,
      0.2,
      "NORMAL",
      "",
      5,
      "WEEK 4",
      28,
      "2012-09-02T10:15",
      29
    ],
    [
      "CDISCPILOT01",
      "LB",
      "01-701-1023",
      6,
      "BILI",
      "Bilirubin",
      "CHEMISTRY",
      "0.7",
      "mg/dL",
      "0.2",
      "1.2",
      "11.97",
      11.97,
      "umol/L",
      3,
      21,
      "NORMAL",
      "Y",
      1,
      "SCREENING 1",
      -7,
      "2012-07-22T12:13",
      -14
    ],
    [
      "CDISCPILOT01",
      "LB",
      "01-701-1023",
      43,
      "BILI",
      "Bilirubin",
      "CHEMISTRY",
      "0.4",
      "mg/dL",
      "0.2",
      "1.2",
      "6.84",
      6.84,
      "umol/L",
      3,
      21,
      "NORMAL",
      "",
      4,
      "WEEK 2",
      14,
      "2012-08-27T15:47",
      23
    ],
    [
      "CDISCPILOT01",
      "LB",
      "01-701-1023",
      78,
      "BILI",
      "Bilirubin",
      "CHEMISTRY",
      "0.5",
      "mg/dL",
      "0.2",
      "1.2",
      "8.55",
      8.55,
      "umol/L",
      3,
      21,
      "NORMAL",
      "",
      5,
      "WEEK 4",
      28,
      "2012-09-02T10:15",
      29
    ],
    [
      "CDISCPILOT01",
      "LB",
      "01-701-1023",
      7,
      "BUN",
      "Blood Urea Nitrogen",
      "CHEMISTRY",
      "18",
      "mg/dL",
      "4",
      "24",
      "6.426",
      6.426,
      "mmol/L",
      1.4,
      8.6,
      "NORMAL",
      "Y",
      1,
      "SCREENING 1",
      -7,
      "2012-07-22T12:13",
      -14
    ],
    [
      "CDISCPILOT01",
      "LB",
      "01-701-1023",
      44,
      "BUN",
      "Blood Urea Nitrogen",
      "CHEMISTRY",
      "21",
      "mg/dL",
      "4",
      "24",
      "7.497",
      7.497,
      "mmol/L",
      1.4,
      8.6,
      "NORMAL",
      "",
      4,
      "WEEK 2",
      14,
      "2012-08-27T15:47",
      23
    ],
    [
      "CDISCPILOT01",
      "LB",
      "01-701-1023",
      79,
      "BUN",
      "Blood Urea Nitrogen",
      "CHEMISTRY",
      "17",
      "mg/dL",
      "4",
      "24",
      "6.069",
      6.069,
      "mmol/L",
      1.4,
      8.6,
      "NORMAL",
      "",
      5,
      "WEEK 4",
      28,
      "2012-09-02T10:15",
      29
    ],
    [
      "CDISCPILOT01",
      "LB",
      "01-701-1023",
      8,
      "CA",
      "Calcium",
      "CHEMISTRY",
      "9.9",
      "mg/dL",
      "8.4",
      "10.3",
      "2.47005",
      2.47005,
      "mmol/L",
      2.1,
      2.57,
      "NORMAL",
      "Y",
      1,
      "SCREENING 1",
      -7,
      "2012-07-22T12:13",
      -14
    ],
    [
      "CDISCPILOT01",
      "LB",
      "01-701-1023",
      45,
      "CA",
      "Calcium",
      "CHEMISTRY",
      "9.4",
      "mg/dL",
      "8.4",
      "10.3",
      "2.3453",
      2.3453,
      "mmol/L",
      2.1,
      2.57,
      "NORMAL",
      "",
      4,
      "WEEK 2",
      14,
      "2012-08-27T15:47",
      23
    ],
    [
      "CDISCPILOT01",
      "LB",
      "01-701-1023",
      80,
      "CA",
      "Calcium",
      "CHEMISTRY",
      "9.5",
      "mg/dL",
      "8.4",
      "10.3",
      "2.37025",
      2.37025,
      "mmol/L",
      2.1,
      2.57,
      "NORMAL",
      "",
      5,
      "WEEK 4",
      28,
      "2012-09-02T10:15",
      29
    ],
    [
      "CDISCPILOT01",
      "LB",
      "01-701-1023",
      9,
      "CHOL",
      "Cholesterol",
      "CHEMISTRY",
      "262",
      "mg/dL",
      "149",
      "286",
      "6.77532",
      6.77532,
      "mmol/L",
      3.85,
      7.4,
      "NORMAL",
      "Y",
      1,
      "SCREENING 1",
      -7,
      "2012-07-22T12:13",
      -14
    ],
    [
      "CDISCPILOT01",
      "LB",
      "01-701-1023",
      46,
      "CHOL",
      "Cholesterol",
      "CHEMISTRY",
      "237",
      "mg/dL",
      "149",
      "286",
      "6.12882",
      6.12882,
      "mmol/L",
      3.85,
      7.4,
      "NORMAL",
      "",
      4,
      "WEEK 2",
      14,
      "2012-08-27T15:47",
      23
    ],
    [
      "CDISCPILOT01",
      "LB",
      "01-701-1023",
      81,
      "CHOL",
      "Cholesterol",
      "CHEMISTRY",
      "235",
      "mg/dL",
      "149",
      "286",
      "6.0771",
      6.0771,
      "mmol/L",
      3.85,
      7.4,
      "NORMAL",
      "",
      5,
      "WEEK 4",
      28,
      "2012-09-02T10:15",
      29
    ],
    [
      "CDISCPILOT01",
      "LB",
      "01-701-1023",
      10,
      "CK",
      "Creatine Kinase",
      "CHEMISTRY",
      "85",
      "U/L",
      "22",
      "198",
      "85",
      85,
      "U/L",
      22,
      198,
      "NORMAL",
      "Y",
      1,
      "SCREENING 1",
      -7,
      "2012-07-22T12:13",
      -14
    ],
    [
      "CDISCPILOT01",
      "LB",
      "01-701-1023",
      47,
      "CK",
      "Creatine Kinase",
      "CHEMISTRY",
      "77",
      "U/L",
      "22",
      "198",
      "77",
      77,
      "U/L",
      22,
      198,
      "NORMAL",
      "",
      4,
      "WEEK 2",
      14,
      "2012-08-27T15:47",
      23
    ],
    [
      "CDISCPILOT01",
      "LB",
      "01-701-1023",
      82,
      "CK",
      "Creatine Kinase",
      "CHEMISTRY",
      "76",
      "U/L",
      "22",
      "198",
      "76",
      76,
      "U/L",
      22,
      198,
      "NORMAL",
      "",
      5,
      "WEEK 4",
      28,
      "2012-09-02T10:15",
      29
    ],
    [
      "CDISCPILOT01",
      "LB",
      "01-701-1023",
      11,
      "CL",
      "Chloride",
      "CHEMISTRY",
      "106",
      "mEq/L",
      "94",
      "112",
      "106",
      106,
      "mmol/L",
      94,
      112,
      "NORMAL",
      "Y",
      1,
      "SCREENING 1",
      -7,
      "2012-07-22T12:13",
      -14
    ],
    [
      "CDISCPILOT01",
      "LB",
      "01-701-1023",
      48,
      "CL",
      "Chloride",
      "CHEMISTRY",
      "108",
      "mEq/L",
      "94",
      "112",
      "108",
      108,
      "mmol/L",
      94,
      112,
      "NORMAL",
      "",
      4,
      "WEEK 2",
      14,
      "2012-08-27T15:47",
      23
    ],
    [
      "CDISCPILOT01",
      "LB",
      "01-701-1023",
      83,
      "CL",
      "Chloride",
      "CHEMISTRY",
      "106",
      "mEq/L",
      "94",
      "112",
      "106",
      106,
      "mmol/L",
      94,
      112,
      "NORMAL",
      "",
      5,
      "WEEK 4",
      28,
      "2012-09-02T10:15",
      29
    ],
    [
      "CDISCPILOT01",
      "LB",
      "01-701-1023",
      12,
      "COLOR",
      "Color",
      "URINALYSIS",
      "N",
      "NO UNITS",
      "",
      "",
      "N",
      null,
      "",
      null,
      null,
      "NORMAL",
      "Y",
      1,
      "SCREENING 1",
      -7,
      "2012-07-22T12:13",
      -14
    ],
    [
      "CDISCPILOT01",
      "LB",
      "01-701-1023",
      49,
      "COLOR",
      "Color",
      "URINALYSIS",
      "N",
      "NO UNITS",
      "",
      "",
      "N",
      null,
      "",
      null,
      null,
      "NORMAL",
      "",
      4,
      "WEEK 2",
      14,
      "2012-08-27T15:47",
      23
    ],
    [
      "CDISCPILOT01",
      "LB",
      "01-701-1023",
      84,
      "COLOR",
      "Color",
      "URINALYSIS",
      "N",
      "NO UNITS",
      "",
      "",
      "N",
      null,
      "",
      null,
      null,
      "NORMAL",
      "",
      5,
      "WEEK 4",
      28,
      "2012-09-02T10:15",
      29
    ],
    [
      "CDISCPILOT01",
      "LB",
      "01-701-1023",
      13,
      "CREAT",
      "Creatinine",
      "CHEMISTRY",
      "1.4",
      "mg/dL",
      "0.8",
      "1.6",
      "123.76",
      123.76,
      "umol/L",
      71,
      141,
      "NORMAL",
      "Y",
      1,
      "SCREENING 1",
      -7,
      "2012-07-22T12:13",
      -14
    ],
    [
      "CDISCPILOT01",
      "LB",
      "01-701-1023",
      50,
      "CREAT",
      "Creatinine",
      "CHEMISTRY",
      "1.5",
      "mg/dL",
      "0.8",
      "1.6",
      "132.6",
      132.6,
      "umol/L",
      71,
      141,
      "NORMAL",
      "",
      4,
      "WEEK 2",
      14,
      "2012-08-27T15:47",
      23
    ],
    [
      "CDISCPILOT01",
      "LB",
      "01-701-1023",
      85,
      "CREAT",
      "Creatinine",
      "CHEMISTRY",
      "1.3",
      "mg/dL",
      "0.8",
      "1.6",
      "114.92",
      114.92,
      "umol/L",
      71,
      141,
      "NORMAL",
      "",
      5,
      "WEEK 4",
      28,
      "2012-09-02T10:15",
      29
    ],
    [
      "CDISCPILOT01",
      "LB",
      "01-701-1023",
      14,
      "EOS",
      "Eosinophils",
      "HEMATOLOGY",
      "0.09",
      "THOU/uL",
      "0",
      "0.57",
      "0.09",
      0.09,
      "GI/L",
      0,
      0.57,
      "NORMAL",
      "Y",
      1,
      "SCREENING 1",
      -7,
      "2012-07-22T12:13",
      -14
    ],
    [
      "CDISCPILOT01",
      "LB",
      "01-701-1023",
      51,
      "EOS",
      "Eosinophils",
      "HEMATOLOGY",
      "0.07",
      "THOU/uL",
      "0",
      "0.57",
      "0.07",
      0.07,
      "GI/L",
      0,
      0.57,
      "NORMAL",
      "",
      4,
      "WEEK 2",
      14,
      "2012-08-27T15:47",
      23
    ],
    [
      "CDISCPILOT01",
      "LB",
      "01-701-1023",
      86,
      "EOS",
      "Eosinophils",
      "HEMATOLOGY",
      "0.07",
      "THOU/uL",
      "0",
      "0.57",
      "0.07",
      0.07,
      "GI/L",
      0,
      0.57,
      "NORMAL",
      "",
      5,
      "WEEK 4",
      28,
      "2012-09-02T10:15",
      29
    ],
    [
      "CDISCPILOT01",
      "LB",
      "01-701-1023",
      15,
      "GGT",
      "Gamma Glutamyl Transferase",
      "CHEMISTRY",
      "18",
      "U/L",
      "10",
      "50",
      "18",
      18,
      "U/L",
      10,
      50,
      "NORMAL",
      "Y",
      1,
      "SCREENING 1",
      -7,
      "2012-07-22T12:13",
      -14
    ],
    [
      "CDISCPILOT01",
      "LB",
      "01-701-1023",
      52,
      "GGT",
      "Gamma Glutamyl Transferase",
      "CHEMISTRY",
      "22",
      "U/L",
      "10",
      "50",
      "22",
      22,
      "U/L",
      10,
      50,
      "NORMAL",
      "",
      4,
      "WEEK 2",
      14,
      "2012-08-27T15:47",
      23
    ],
    [
      "CDISCPILOT01",
      "LB",
      "01-701-1023",
      87,
      "GGT",
      "Gamma Glutamyl Transferase",
      "CHEMISTRY",
      "22",
      "U/L",
      "10",
      "50",
      "22",
      22,
      "U/L",
      10,
      50,
      "NORMAL",
      "",
      5,
      "WEEK 4",
      28,
      "2012-09-02T10:15",
      29
    ],
    [
      "CDISCPILOT01",
      "LB",
      "01-701-1023",
      16,
      "GLUC",
      "Glucose",
      "CHEMISTRY",
      "96",
      "mg/dL",
      "50",
      "250",
      "5.32896",
      5.32896,
      "mmol/L",
      2.8,
      13.9,
      "NORMAL",
      "Y",
      1,
      "SCREENING 1",
      -7,
      "2012-07-22T12:13",
      -14
    ],
    [
      "CDISCPILOT01",
      "LB",
      "01-701-1023",
      53,
      "GLUC",
      "Glucose",
      "CHEMISTRY",
      "104",
      "mg/dL",
      "50",
      "250",
      "5.77304",
      5.77304,
      "mmol/L",
      2.8,
      13.9,
      "NORMAL",
      "",
      4,
      "WEEK 2",
      14,
      "2012-08-27T15:47",
      23
    ],
    [
      "CDISCPILOT01",
      "LB",
      "01-701-1023",
      88,
      "GLUC",
      "Glucose",
      "CHEMISTRY",
      "98",
      "mg/dL",
      "50",
      "250",
      "5.43998",
      5.43998,
      "mmol/L",
      2.8,
      13.9,
      "NORMAL",
      "",
      5,
      "WEEK 4",
      28,
      "2012-09-02T10:15",
      29
    ],
    [
      "CDISCPILOT01",
      "LB",
      "01-701-1023",
      17,
      "HCT",
      "Hematocrit",
      "HEMATOLOGY",
      "49.0",
      "%",
      "37",
      "51",
      "0.49",
      0.49,
      "1",
      0.37,
      0.51,
      "NORMAL",
      "Y",
      1,
      "SCREENING 1",
      -7,
      "2012-07-22T12:13",
      -14
    ],
    [
      "CDISCPILOT01",
      "LB",
      "01-701-1023",
      54,
      "HCT",
      "Hematocrit",
      "HEMATOLOGY",
      "46.0",
      "%",
      "37",
      "51",
      "0.46",
      0.46,
      "1",
      0.37,
      0.51,
      "NORMAL",
      "",
      4,
      "WEEK 2",
      14,
      "2012-08-27T15:47",
      23
    ],
    [
      "CDISCPILOT01",
      "LB",
      "01-701-1023",
      89,
      "HCT",
      "Hematocrit",
      "HEMATOLOGY",
      "48.0",
      "%",
      "37",
      "51",
      "0.48",
      0.48,
      "1",
      0.37,
      0.51,
      "NORMAL",
      "",
      5,
      "WEEK 4",
      28,
      "2012-09-02T10:15",
      29
    ],
    [
      "CDISCPILOT01",
      "LB",
      "01-701-1023",
      18,
      "HGB",
      "Hemoglobin",
      "HEMATOLOGY",
      "16.2",
      "g/dL",
      "12.5",
      "17",
      "10.05372",
      10.05372,
      "mmol/L",
      7.76,
      10.55,
      "NORMAL",
      "Y",
      1,
      "SCREENING 1",
      -7,
      "2012-07-22T12:13",
      -14
    ],
    [
      "CDISCPILOT01",
      "LB",
      "01-701-1023",
      55,
      "HGB",
      "Hemoglobin",
      "HEMATOLOGY",
      "14.9",
      "g/dL",
      "12.5",
      "17",
      "9.24694",
      9.24694,
      "mmol/L",
      7.76,
      10.55,
      "NORMAL",
      "",
      4,
      "WEEK 2",
      14,
      "2012-08-27T15:47",
      23
    ],
    [
      "CDISCPILOT01",
      "LB",
      "01-701-1023",
      90,
      "HGB",
      "Hemoglobin",
      "HEMATOLOGY",
      "15.3",
      "g/dL",
      "12.5",
      "17",
      "9.49518",
      9.49518,
      "mmol/L",
      7.76,
      10.55,
      "NORMAL",
      "",
      5,
      "WEEK 4",
      28,
      "2012-09-02T10:15",
      29
    ],
    [
      "CDISCPILOT01",
      "LB",
      "01-701-1023",
      19,
      "K",
      "Potassium",
      "CHEMISTRY",
      "4.9",
      "mEq/L",
      "3.4",
      "5.4",
      "4.9",
      4.9,
      "mmol/L",
      3.4,
      5.4,
      "NORMAL",
      "Y",
      1,
      "SCREENING 1",
      -7,
      "2012-07-22T12:13",
      -14
    ],
    [
      "CDISCPILOT01",
      "LB",
      "01-701-1023",
      56,
      "K",
      "Potassium",
      "CHEMISTRY",
      "4.8",
      "mEq/L",
      "3.4",
      "5.4",
      "4.8",
      4.8,
      "mmol/L",
      3.4,
      5.4,
      "NORMAL",
      "",
      4,
      "WEEK 2",
      14,
      "2012-08-27T15:47",
      23
    ],
    [
      "CDISCPILOT01",
      "LB",
      "01-701-1023",
      91,
      "K",
      "Potassium",
      "CHEMISTRY",
      "4.7",
      "mEq/L",
      "3.4",
      "5.4",
      "4.7",
      4.7,
      "mmol/L",
      3.4,
      5.4,
      "NORMAL",
      "",
      5,
      "WEEK 4",
      28,
      "2012-09-02T10:15",
      29
    ],
    [
      "CDISCPILOT01",
      "LB",
      "01-701-1023",
      20,
      "KETONES",
      "Ketones",
      "URINALYSIS",
      "0",
      "NO UNITS",
      "",
      "",
      "0",
      0,
      "",
      null,
      null,
      "NORMAL",
      "Y",
      1,
      "SCREENING 1",
      -7,
      "2012-07-22T12:13",
      -14
    ],
    [
      "CDISCPILOT01",
      "LB",
      "01-701-1023",
      57,
      "KETONES",
      "Ketones",
      "URINALYSIS",
      "0",
      "NO UNITS",
      "",
      "",
      "0",
      0,
      "",
      null,
      null,
      "NORMAL",
      "",
      4,
      "WEEK 2",
      14,
      "2012-08-27T15:47",
      23
    ],
    [
      "CDISCPILOT01",
      "LB",
      "01-701-1023",
      92,
      "KETONES",
      "Ketones",
      "URINALYSIS",
      "0",
      "NO UNITS",
      "",
      "",
      "0",
      0,
      "",
      null,
      null,
      "NORMAL",
      "",
      5,
      "WEEK 4",
      28,
      "2012-09-02T10:15",
      29
    ],
    [
      "CDISCPILOT01",
      "LB",
      "01-701-1023",
      21,
      "LYM",
      "Lymphocytes",
      "HEMATOLOGY",
      "1.69",
      "THOU/uL",
      "0.8",
      "3",
      "1.69",
      1.69,
      "GI/L",
      0.8,
      3,
      "NORMAL",
      "Y",
      1,
      "SCREENING 1",
      -7,
      "2012-07-22T12:13",
      -14
    ],
    [
      "CDISCPILOT01",
      "LB",
      "01-701-1023",
      58,
      "LYM",
      "Lymphocytes",
      "HEMATOLOGY",
      "2.33",
      "THOU/uL",
      "0.8",
      "3",
      "2.33",
      2.33,
      "GI/L",
      0.8,
      3,
      "NORMAL",
      "",
      4,
      "WEEK 2",
      14,
      "2012-08-27T15:47",
      23
    ],
    [
      "CDISCPILOT01",
      "LB",
      "01-701-1023",
      93,
      "LYM",
      "Lymphocytes",
      "HEMATOLOGY",
      "1.40",
      "THOU/uL",
      "0.8",
      "3",
      "1.4",
      1.4,
      "GI/L",
      0.8,
      3,
      "NORMAL",
      "",
      5,
      "WEEK 4",
      28,
      "2012-09-02T10:15",
      29
    ],
    [
      "CDISCPILOT01",
      "LB",
      "01-701-1023",
      22,
      "MCH",
      "Ery. Mean Corpuscular Hemoglobin",
      "HEMATOLOGY",
      "30",
      "pg",
      "26",
      "34",
      "1.8618",
      1.8618,
      "fmol(Fe)",
      1.6,
      2.1,
      "NORMAL",
      "Y",
      1,
      "SCREENING 1",
      -7,
      "2012-07-22T12:13",
      -14
    ],
    [
      "CDISCPILOT01",
      "LB",
      "01-701-1023",
      59,
      "MCH",
      "Ery. Mean Corpuscular Hemoglobin",
      "HEMATOLOGY",
      "31",
      "pg",
      "26",
      "34",
      "1.92386",
      1.92386,
      "fmol(Fe)",
      1.6,
      2.1,
      "NORMAL",
      "",
      4,
      "WEEK 2",
      14,
      "2012-08-27T15:47",
      23
    ],
    [
      "CDISCPILOT01",
      "LB",
      "01-701-1023",
      94,
      "MCH",
      "Ery. Mean Corpuscular Hemoglobin",
      "HEMATOLOGY",
      "30",
      "pg",
      "26",
      "34",
      "1.8618",
      1.8618,
      "fmol(Fe)",
      1.6,
      2.1,
      "NORMAL",
      "",
      5,
      "WEEK 4",
      28,
      "2012-09-02T10:15",
      29
    ],
    [
      "CDISCPILOT01",
      "LB",
      "01-701-1023",
      23,
      "MCHC",
      "Ery. Mean Corpuscular HGB Concentration",
      "HEMATOLOGY",
      "33",
      "g/dL",
      "31",
      "38",
      "20.4798",
      20.4798,
      "mmol/L",
      19,
      24,
      "NORMAL",
      "Y",
      1,
      "SCREENING 1",
      -7,
      "2012-07-22T12:13",
      -14
    ],
    [
      "CDISCPILOT01",
      "LB",
      "01-701-1023",
      60,
      "MCHC",
      "Ery. Mean Corpuscular HGB Concentration",
      "HEMATOLOGY",
      "33",
      "g/dL",
      "31",
      "38",
      "20.4798",
      20.4798,
      "mmol/L",
      19,
      24,
      "NORMAL",
      "",
      4,
      "WEEK 2",
      14,
      "2012-08-27T15:47",
      23
    ],
    [
      "CDISCPILOT01",
      "LB",
      "01-701-1023",
      95,
      "MCHC",
      "Ery. Mean Corpuscular HGB Concentration",
      "HEMATOLOGY",
      "32",
      "g/dL",
      "31",
      "38",
      "19.8592",
      19.8592,
      "mmol/L",
      19,
      24,
      "NORMAL",
      "",
      5,
      "WEEK 4",
      28,
      "2012-09-02T10:15",
      29
    ],
    [
      "CDISCPILOT01",
      "LB",
      "01-701-1023",
      24,
      "MCV",
      "Ery. Mean Corpuscular Volume",
      "HEMATOLOGY",
      "92",
      "fL",
      "80",
      "100",
      "92",
      92,
      "fL",
      80,
      100,
      "NORMAL",
      "Y",
      1,
      "SCREENING 1",
      -7,
      "2012-07-22T12:13",
      -14
    ],
    [
      "CDISCPILOT01",
      "LB",
      "01-701-1023",
      61,
      "MCV",
      "Ery. Mean Corpuscular Volume",
      "HEMATOLOGY",
      "95",
      "fL",
      "80",
      "100",
      "95",
      95,
      "fL",
      80,
      100,
      "NORMAL",
      "",
      4,
      "WEEK 2",
      14,
      "2012-08-27T15:47",
      23
    ],
    [
      "CDISCPILOT01",
      "LB",
      "01-701-1023",
      96,
      "MCV",
      "Ery. Mean Corpuscular Volume",
      "HEMATOLOGY",
      "92",
      "fL",
      "80",
      "100",
      "92",
      92,
      "fL",
      80,
      100,
      "NORMAL",
      "",
      5,
      "WEEK 4",
      28,
      "2012-09-02T10:15",
      29
    ],
    [
      "CDISCPILOT01",
      "LB",
      "01-701-1023",
      25,
      "MONO",
      "Monocytes",
      "HEMATOLOGY",
      "0.61",
      "THOU/uL",
      "0.12",
      "0.92",
      "0.61",
      0.61,
      "GI/L",
      0.12,
      0.92,
      "NORMAL",
      "Y",
      1,
      "SCREENING 1",
      -7,
      "2012-07-22T12:13",
      -14
    ],
    [
      "CDISCPILOT01",
      "LB",
      "01-701-1023",
      62,
      "MONO",
      "Monocytes",
      "HEMATOLOGY",
      "0.64",
      "THOU/uL",
      "0.12",
      "0.92",
      "0.64",
      0.64,
      "GI/L",
      0.12,
      0.92,
      "NORMAL",
      "",
      4,
      "WEEK 2",
      14,
      "2012-08-27T15:47",
      23
    ],
    [
      "CDISCPILOT01",
      "LB",
      "01-701-1023",
      97,
      "MONO",
      "Monocytes",
      "HEMATOLOGY",
      "0.58",
      "THOU/uL",
      "0.12",
      "0.92",
      "0.58",
      0.58,
      "GI/L",
      0.12,
      0.92,
      "NORMAL",
      "",
      5,
      "WEEK 4",
      28,
      "2012-09-02T10:15",
      29
    ],
    [
      "CDISCPILOT01",
      "LB",
      "01-701-1023",
      26,
      "SODIUM",
      "Sodium",
      "CHEMISTRY",
      "142",
      "mEq/L",
      "135",
      "145",
      "142",
      142,
      "mmol/L",
      135,
      145,
      "NORMAL",
      "Y",
      1,
      "SCREENING 1",
      -7,
      "2012-07-22T12:13",
      -14
    ],
    [
      "CDISCPILOT01",
      "LB",
      "01-701-1023",
      63,
      "SODIUM",
      "Sodium",
      "CHEMISTRY",
      "140",
      "mEq/L",
      "135",
      "145",
      "140",
      140,
      "mmol/L",
      135,
      145,
      "NORMAL",
      "",
      4,
      "WEEK 2",
      14,
      "2012-08-27T15:47",
      23
    ],
    [
      "CDISCPILOT01",
      "LB",
      "01-701-1023",
      98,
      "SODIUM",
      "Sodium",
      "CHEMISTRY",
      "141",
      "mEq/L",
      "135",
      "145",
      "141",
      141,
      "mmol/L",
      135,
      145,
      "NORMAL",
      "",
      5,
      "WEEK 4",
      28,
      "2012-09-02T10:15",
      29
    ],
    [
      "CDISCPILOT01",
      "LB",
      "01-701-1023",
      27,
      "PH",
      "pH",
      "URINALYSIS",
      "5.0",
      "NO UNITS",
      "5",
      "8",
      "5",
      5,
      "",
      5,
      8,
      "NORMAL",
      "Y",
      1,
      "SCREENING 1",
      -7,
      "2012-07-22T12:13",
      -14
    ],
    [
      "CDISCPILOT01",
      "LB",
      "01-701-1023",
      64,
      "PH",
      "pH",
      "URINALYSIS",
      "5.0",
      "NO UNITS",
      "5",
      "8",
      "5",
      5,
      "",
      5,
      8,
      "NORMAL",
      "",
      4,
      "WEEK 2",
      14,
      "2012-08-27T15:47",
      23
    ],
    [
      "CDISCPILOT01",
      "LB",
      "01-701-1023",
      99,
      "PH",
      "pH",
      "URINALYSIS",
      "5.0",
      "NO UNITS",
      "5",
      "8",
      "5",
      5,
      "",
      5,
      8,
      "NORMAL",
      "",
      5,
      "WEEK 4",
      28,
      "2012-09-02T10:15",
      29
    ],
    [
      "CDISCPILOT01",
      "LB",
      "01-701-1023",
      28,
      "PHOS",
      "Phosphate",
      "CHEMISTRY",
      "4.0",
      "mg/dL",
      "2.2",
      "5.1",
      "1.2916",
      1.2916,
      "mmol/L",
      0.71,
      1.65,
      "NORMAL",
      "Y",
      1,
      "SCREENING 1",
      -7,
      "2012-07-22T12:13",
      -14
    ],
    [
      "CDISCPILOT01",
      "LB",
      "01-701-1023",
      65,
      "PHOS",
      "Phosphate",
      "CHEMISTRY",
      "3.7",
      "mg/dL",
      "2.2",
      "5.1",
      "1.19473",
      1.19473,
      "mmol/L",
      0.71,
      1.65,
      "NORMAL",
      "",
      4,
      "WEEK 2",
      14,
      "2012-08-27T15:47",
      23
    ],
    [
      "CDISCPILOT01",
      "LB",
      "01-701-1023",
      100,
      "PHOS",
      "Phosphate",
      "CHEMISTRY",
      "3.4",
      "mg/dL",
      "2.2",
      "5.1",
      "1.09786",
      1.09786,
      "mmol/L",
      0.71,
      1.65,
      "NORMAL",
      "",
      5,
      "WEEK 4",
      28,
      "2012-09-02T10:15",
      29
    ],
    [
      "CDISCPILOT01",
      "LB",
      "01-701-1023",
      29,
      "PLAT",
      "Platelet",
      "HEMATOLOGY",
      "217",
      "THOU/uL",
      "130",
      "394",
      "217",
      217,
      "GI/L",
      130,
      394,
      "NORMAL",
      "Y",
      1,
      "SCREENING 1",
      -7,
      "2012-07-22T12:13",
      -14
    ],
    [
      "CDISCPILOT01",
      "LB",
      "01-701-1023",
      66,
      "PLAT",
      "Platelet",
      "HEMATOLOGY",
      "222",
      "THOU/uL",
      "130",
      "394",
      "222",
      222,
      "GI/L",
      130,
      394,
      "NORMAL",
      "",
      4,
      "WEEK 2",
      14,
      "2012-08-27T15:47",
      23
    ],
    [
      "CDISCPILOT01",
      "LB",
      "01-701-1023",
      101,
      "PLAT",
      "Platelet",
      "HEMATOLOGY",
      "198",
      "THOU/uL",
      "130",
      "394",
      "198",
      198,
      "GI/L",
      130,
      394,
      "NORMAL",
      "",
      5,
      "WEEK 4",
      28,
      "2012-09-02T10:15",
      29
    ],
    [
      "CDISCPILOT01",
      "LB",
      "01-701-1023",
      30,
      "PROT",
      "Protein",
      "CHEMISTRY",
      "7.4",
      "g/dL",
      "6",
      "8",
      "74",
      74,
      "g/L",
      60,
      80,
      "NORMAL",
      "Y",
      1,
      "SCREENING 1",
      -7,
      "2012-07-22T12:13",
      -14
    ],
    [
      "CDISCPILOT01",
      "LB",
      "01-701-1023",
      67,
      "PROT",
      "Protein",
      "CHEMISTRY",
      "6.9",
      "g/dL",
      "6",
      "8",
      "69",
      69,
      "g/L",
      60,
      80,
      "NORMAL",
      "",
      4,
      "WEEK 2",
      14,
      "2012-08-27T15:47",
      23
    ],
    [
      "CDISCPILOT01",
      "LB",
      "01-701-1023",
      102,
      "PROT",
      "Protein",
      "CHEMISTRY",
      "7.1",
      "g/dL",
      "6",
      "8",
      "71",
      71,
      "g/L",
      60,
      80,
      "NORMAL",
      "",
      5,
      "WEEK 4",
      28,
      "2012-09-02T10:15",
      29
    ],
    [
      "CDISCPILOT01",
      "LB",
      "01-701-1023",
      31,
      "RBC",
      "Erythrocytes",
      "HEMATOLOGY",
      "5.30",
      "MILL/uL",
      "4",
      "5.8",
      "5.3",
      5.3,
      "TI/L",
      4,
      5.8,
      "NORMAL",
      "Y",
      1,
      "SCREENING 1",
      -7,
      "2012-07-22T12:13",
      -14
    ],
    [
      "CDISCPILOT01",
      "LB",
      "01-701-1023",
      68,
      "RBC",
      "Erythrocytes",
      "HEMATOLOGY",
      "4.80",
      "MILL/uL",
      "4",
      "5.8",
      "4.8",
      4.8,
      "TI/L",
      4,
      5.8,
      "NORMAL",
      "",
      4,
      "WEEK 2",
      14,
      "2012-08-27T15:47",
      23
    ],
    [
      "CDISCPILOT01",
      "LB",
      "01-701-1023",
      103,
      "RBC",
      "Erythrocytes",
      "HEMATOLOGY",
      "5.20",
      "MILL/uL",
      "4",
      "5.8",
      "5.2",
      5.2,
      "TI/L",
      4,
      5.8,
      "NORMAL",
      "",
      5,
      "WEEK 4",
      28,
      "2012-09-02T10:15",
      29
    ],
    [
      "CDISCPILOT01",
      "LB",
      "01-701-1023",
      32,
      "SPGRAV",
      "Specific Gravity",
      "URINALYSIS",
      "1.016",
      "NO UNITS",
      "1.006",
      "1.03",
      "1.016",
      1.016,
      "",
      1.006,
      1.03,
      "NORMAL",
      "Y",
      1,
      "SCREENING 1",
      -7,
      "2012-07-22T12:13",
      -14
    ],
    [
      "CDISCPILOT01",
      "LB",
      "01-701-1023",
      69,
      "SPGRAV",
      "Specific Gravity",
      "URINALYSIS",
      "1.026",
      "NO UNITS",
      "1.006",
      "1.03",
      "1.026",
      1.026,
      "",
      1.006,
      1.03,
      "NORMAL",
      "",
      4,
      "WEEK 2",
      14,
      "2012-08-27T15:47",
      23
    ],
    [
      "CDISCPILOT01",
      "LB",
      "01-701-1023",
      104,
      "SPGRAV",
      "Specific Gravity",
      "URINALYSIS",
      "1.016",
      "NO UNITS",
      "1.006",
      "1.03",
      "1.016",
      1.016,
      "",
      1.006,
      1.03,
      "NORMAL",
      "",
      5,
      "WEEK 4",
      28,
      "2012-09-02T10:15",
      29
    ],
    [
      "CDISCPILOT01",
      "LB",
      "01-701-1023",
      33,
      "TSH",
      "Thyrotropin",
      "OTHER",
      "1.28",
      "uIU/mL",
      "0.32",
      "5",
      "1.28",
      1.28,
      "mU/L",
      0.32,
      5,
      "NORMAL",
      "Y",
      1,
      "SCREENING 1",
      -7,
      "2012-07-22T12:13",
      -14
    ],
    [
      "CDISCPILOT01",
      "LB",
      "01-701-1023",
      34,
      "URATE",
      "Urate",
      "CHEMISTRY",
      "6.7",
      "mg/dL",
      "2.5",
      "7.5",
      "398.516",
      398.516,
      "umol/L",
      149,
      446,
      "NORMAL",
      "Y",
      1,
      "SCREENING 1",
      -7,
      "2012-07-22T12:13",
      -14
    ],
    [
      "CDISCPILOT01",
      "LB",
      "01-701-1023",
      70,
      "URATE",
      "Urate",
      "CHEMISTRY",
      "6.2",
      "mg/dL",
      "2.5",
      "7.5",
      "368.776",
      368.776,
      "umol/L",
      149,
      446,
      "NORMAL",
      "",
      4,
      "WEEK 2",
      14,
      "2012-08-27T15:47",
      23
    ],
    [
      "CDISCPILOT01",
      "LB",
      "01-701-1023",
      105,
      "URATE",
      "Urate",
      "CHEMISTRY",
      "6.1",
      "mg/dL",
      "2.5",
      "7.5",
      "362.828",
      362.828,
      "umol/L",
      149,
      446,
      "NORMAL",
      "",
      5,
      "WEEK 4",
      28,
      "2012-09-02T10:15",
      29
    ],
    [
      "CDISCPILOT01",
      "LB",
      "01-701-1023",
      35,
      "UROBIL",
      "Urobilinogen",
      "URINALYSIS",
      "0",
      "NO UNITS",
      "",
      "",
      "0",
      0,
      "",
      null,
      null,
      "NORMAL",
      "Y",
      1,
      "SCREENING 1",
      -7,
      "2012-07-22T12:13",
      -14
    ],
    [
      "CDISCPILOT01",
      "LB",
      "01-701-1023",
      71,
      "UROBIL",
      "Urobilinogen",
      "URINALYSIS",
      "0",
      "NO UNITS",
      "",
      "",
      "0",
      0,
      "",
      null,
      null,
      "NORMAL",
      "",
      4,
      "WEEK 2",
      14,
      "2012-08-27T15:47",
      23
    ],
    [
      "CDISCPILOT01",
      "LB",
      "01-701-1023",
      106,
      "UROBIL",
      "Urobilinogen",
      "URINALYSIS",
      "0",
      "NO UNITS",
      "",
      "",
      "0",
      0,
      "",
      null,
      null,
      "NORMAL",
      "",
      5,
      "WEEK 4",
      28,
      "2012-09-02T10:15",
      29
    ],
    [
      "CDISCPILOT01",
      "LB",
      "01-701-1023",
      36,
      "VITB12",
      "Vitamin B12",
      "OTHER",
      "553",
      "pg/mL",
      "200",
      "900",
      "408.0034",
      408.0034,
      "pmol/L",
      148,
      664,
      "NORMAL",
      "Y",
      1,
      "SCREENING 1",
      -7,
      "2012-07-22T12:13",
      -14
    ],
    [
      "CDISCPILOT01",
      "LB",
      "01-701-1023",
      37,
      "WBC",
      "Leukocytes",
      "HEMATOLOGY",
      "8.78",
      "THOU/uL",
      "3.8",
      "10.7",
      "8.78",
      8.78,
      "GI/L",
      3.8,
      10.7,
      "NORMAL",
      "Y",
      1,
      "SCREENING 1",
      -7,
      "2012-07-22T12:13",
      -14
    ],
    [
      "CDISCPILOT01",
      "LB",
      "01-701-1023",
      72,
      "WBC",
      "Leukocytes",
      "HEMATOLOGY",
      "8.55",
      "THOU/uL",
      "3.8",
      "10.7",
      "8.55",
      8.55,
      "GI/L",
      3.8,
      10.7,
      "NORMAL",
      "",
      4,
      "WEEK 2",
      14,
      "2012-08-27T15:47",
      23
    ],
    [
      "CDISCPILOT01",
      "LB",
      "01-701-1023",
      107,
      "WBC",
      "Leukocytes",
      "HEMATOLOGY",
      "7.67",
      "THOU/uL",
      "3.8",
      "10.7",
      "7.67",
      7.67,
      "GI/L",
      3.8,
      10.7,
      "NORMAL",
      "",
      5,
      "WEEK 4",
      28,
      "2012-09-02T10:15",
      29
    ],
    [
      "CDISCPILOT01",
      "LB",
      "01-701-1028",
      1,
      "ALB",
      "Albumin",
      "CHEMISTRY",
      "4.4",
      "g/dL",
      "3.5",
      "4.6",
      "44",
      44,
      "g/L",
      35,
      46,
      "NORMAL",
      "Y",
      1,
      "SCREENING 1",
      -7,
      "2013-07-11T12:02",
      -8
    ],
    [
      "CDISCPILOT01",
      "LB",
      "01-701-1028",
      38,
      "ALB",
      "Albumin",
      "CHEMISTRY",
      "4.2",
      "g/dL",
      "3.5",
      "4.6",
      "42",
      42,
      "g/L",
      35,
      46,
      "NORMAL",
      "",
      4,
      "WEEK 2",
      14,
      "2013-08-01T09:15",
      14
    ],
    [
      "CDISCPILOT01",
      "LB",
      "01-701-1028",
      73,
      "ALB",
      "Albumin",
      "CHEMISTRY",
      "4.1",
      "g/dL",
      "3.5",
      "4.6",
      "41",
      41,
      "g/L",
      35,
      46,
      "NORMAL",
      "",
      5,
      "WEEK 4",
      28,
      "2013-08-14T13:24",
      27
    ],
    [
      "CDISCPILOT01",
      "LB",
      "01-701-1028",
      103,
      "ALB",
      "Albumin",
      "CHEMISTRY",
      "4.0",
      "g/dL",
      "3.5",
      "4.6",
      "40",
      40,
      "g/L",
      35,
      46,
      "NORMAL",
      "",
      7,
      "WEEK 6",
      42,
      "2013-08-29T11:54",
      42
    ],
    [
      "CDISCPILOT01",
      "LB",
      "01-701-1028",
      133,
      "ALB",
      "Albumin",
      "CHEMISTRY",
      "3.9",
      "g/dL",
      "3.5",
      "4.6",
      "39",
      39,
      "g/L",
      35,
      46,
      "NORMAL",
      "",
      8,
      "WEEK 8",
      56,
      "2013-09-10T09:13",
      54
    ],
    [
      "CDISCPILOT01",
      "LB",
      "01-701-1028",
      163,
      "ALB",
      "Albumin",
      "CHEMISTRY",
      "4.4",
      "g/dL",
      "3.5",
      "4.6",
      "44",
      44,
      "g/L",
      35,
      46,
      "NORMAL",
      "",
      9,
      "WEEK 12",
      84,
      "2013-10-09T08:42",
      83
    ],
    [
      "CDISCPILOT01",
      "LB",
      "01-701-1028",
      198,
      "ALB",
      "Albumin",
      "CHEMISTRY",
      "3.7",
      "g/dL",
      "3.5",
      "4.6",
      "37",
      37,
      "g/L",
      35,
      46,
      "NORMAL",
      "",
      10,
      "WEEK 16",
      112,
      "2013-11-06T10:08",
      111
    ],
    [
      "CDISCPILOT01",
      "LB",
      "01-701-1028",
      230,
      "ALB",
      "Albumin",
      "CHEMISTRY",
      "4.0",
      "g/dL",
      "3.5",
      "4.6",
      "40",
      40,
      "g/L",
      35,
      46,
      "NORMAL",
      "",
      11,
      "WEEK 20",
      140,
      "2013-12-04T15:10",
      139
    ],
    [
      "CDISCPILOT01",
      "LB",
      "01-701-1028",
      261,
      "ALB",
      "Albumin",
      "CHEMISTRY",
      "4.2",
      "g/dL",
      "3.5",
      "4.6",
      "42",
      42,
      "g/L",
      35,
      46,
      "NORMAL",
      "",
      12,
      "WEEK 24",
      168,
      "2014-01-06T10:00",
      172
    ],
    [
      "CDISCPILOT01",
      "LB",
      "01-701-1028",
      298,
      "ALB",
      "Albumin",
      "CHEMISTRY",
      "4.5",
      "g/dL",
      "3.5",
      "4.6",
      "45",
      45,
      "g/L",
      35,
      46,
      "NORMAL",
      "",
      13,
      "WEEK 26",
      182,
      "2014-01-14T11:10",
      180
    ],
    [
      "CDISCPILOT01",
      "LB",
      "01-701-1028",
      2,
      "ALP",
      "Alkaline Phosphatase",
      "CHEMISTRY",
      "44",
      "U/L",
      "35",
      "115",
      "44",
      44,
      "U/L",
      35,
      115,
      "NORMAL",
      "Y",
      1,
      "SCREENING 1",
      -7,
      "2013-07-11T12:02",
      -8
    ],
    [
      "CDISCPILOT01",
      "LB",
      "01-701-1028",
      39,
      "ALP",
      "Alkaline Phosphatase",
      "CHEMISTRY",
      "46",
      "U/L",
      "35",
      "115",
      "46",
      46,
      "U/L",
      35,
      115,
      "NORMAL",
      "",
      4,
      "WEEK 2",
      14,
      "2013-08-01T09:15",
      14
    ],
    [
      "CDISCPILOT01",
      "LB",
      "01-701-1028",
      74,
      "ALP",
      "Alkaline Phosphatase",
      "CHEMISTRY",
      "38",
      "U/L",
      "35",
      "115",
      "38",
      38,
      "U/L",
      35,
      115,
      "NORMAL",
      "",
      5,
      "WEEK 4",
      28,
      "2013-08-14T13:24",
      27
    ],
    [
      "CDISCPILOT01",
      "LB",
      "01-701-1028",
      104,
      "ALP",
      "Alkaline Phosphatase",
      "CHEMISTRY",
      "40",
      "U/L",
      "35",
      "115",
      "40",
      40,
      "U/L",
      35,
      115,
      "NORMAL",
      "",
      7,
      "WEEK 6",
      42,
      "2013-08-29T11:54",
      42
    ],
    [
      "CDISCPILOT01",
      "LB",
      "01-701-1028",
      134,
      "ALP",
      "Alkaline Phosphatase",
      "CHEMISTRY",
      "40",
      "U/L",
      "35",
      "115",
      "40",
      40,
      "U/L",
      35,
      115,
      "NORMAL",
      "",
      8,
      "WEEK 8",
      56,
      "2013-09-10T09:13",
      54
    ],
    [
      "CDISCPILOT01",
      "LB",
      "01-701-1028",
      164,
      "ALP",
      "Alkaline Phosphatase",
      "CHEMISTRY",
      "41",
      "U/L",
      "35",
      "115",
      "41",
      41,
      "U/L",
      35,
      115,
      "NORMAL",
      "",
      9,
      "WEEK 12",
      84,
      "2013-10-09T08:42",
      83
    ],
    [
      "CDISCPILOT01",
      "LB",
      "01-701-1028",
      199,
      "ALP",
      "Alkaline Phosphatase",
      "CHEMISTRY",
      "36",
      "U/L",
      "35",
      "115",
      "36",
      36,
      "U/L",
      35,
      115,
      "NORMAL",
      "",
      10,
      "WEEK 16",
      112,
      "2013-11-06T10:08",
      111
    ],
    [
      "CDISCPILOT01",
      "LB",
      "01-701-1028",
      231,
      "ALP",
      "Alkaline Phosphatase",
      "CHEMISTRY",
      "43",
      "U/L",
      "35",
      "115",
      "43",
      43,
      "U/L",
      35,
      115,
      "NORMAL",
      "",
      11,
      "WEEK 20",
      140,
      "2013-12-04T15:10",
      139
    ],
    [
      "CDISCPILOT01",
      "LB",
      "01-701-1028",
      262,
      "ALP",
      "Alkaline Phosphatase",
      "CHEMISTRY",
      "47",
      "U/L",
      "35",
      "115",
      "47",
      47,
      "U/L",
      35,
      115,
      "NORMAL",
      "",
      12,
      "WEEK 24",
      168,
      "2014-01-06T10:00",
      172
    ],
    [
      "CDISCPILOT01",
      "LB",
      "01-701-1028",
      299,
      "ALP",
      "Alkaline Phosphatase",
      "CHEMISTRY",
      "40",
      "U/L",
      "35",
      "115",
      "40",
      40,
      "U/L",
      35,
      115,
      "NORMAL",
      "",
      13,
      "WEEK 26",
      182,
      "2014-01-14T11:10",
      180
    ],
    [
      "CDISCPILOT01",
      "LB",
      "01-701-1028",
      3,
      "ALT",
      "Alanine Aminotransferase",
      "CHEMISTRY",
      "26",
      "U/L",
      "6",
      "35",
      "26",
      26,
      "U/L",
      6,
      35,
      "NORMAL",
      "Y",
      1,
      "SCREENING 1",
      -7,
      "2013-07-11T12:02",
      -8
    ],
    [
      "CDISCPILOT01",
      "LB",
      "01-701-1028",
      40,
      "ALT",
      "Alanine Aminotransferase",
      "CHEMISTRY",
      "30",
      "U/L",
      "6",
      "35",
      "30",
      30,
      "U/L",
      6,
      35,
      "NORMAL",
      "",
      4,
      "WEEK 2",
      14,
      "2013-08-01T09:15",
      14
    ],
    [
      "CDISCPILOT01",
      "LB",
      "01-701-1028",
      75,
      "ALT",
      "Alanine Aminotransferase",
      "CHEMISTRY",
      "29",
      "U/L",
      "6",
      "35",
      "29",
      29,
      "U/L",
      6,
      35,
      "NORMAL",
      "",
      5,
      "WEEK 4",
      28,
      "2013-08-14T13:24",
      27
    ],
    [
      "CDISCPILOT01",
      "LB",
      "01-701-1028",
      105,
      "ALT",
      "Alanine Aminotransferase",
      "CHEMISTRY",
      "32",
      "U/L",
      "6",
      "35",
      "32",
      32,
      "U/L",
      6,
      35,
      "NORMAL",
      "",
      7,
      "WEEK 6",
      42,
      "2013-08-29T11:54",
      42
    ],
    [
      "CDISCPILOT01",
      "LB",
      "01-701-1028",
      135,
      "ALT",
      "Alanine Aminotransferase",
      "CHEMISTRY",
      "33",
      "U/L",
      "6",
      "35",
      "33",
      33,
      "U/L",
      6,
      35,
      "NORMAL",
      "",
      8,
      "WEEK 8",
      56,
      "2013-09-10T09:13",
      54
    ],
    [
      "CDISCPILOT01",
      "LB",
      "01-701-1028",
      165,
      "ALT",
      "Alanine Aminotransferase",
      "CHEMISTRY",
      "29",
      "U/L",
      "6",
      "35",
      "29",
      29,
      "U/L",
      6,
      35,
      "NORMAL",
      "",
      9,
      "WEEK 12",
      84,
      "2013-10-09T08:42",
      83
    ],
    [
      "CDISCPILOT01",
      "LB",
      "01-701-1028",
      200,
      "ALT",
      "Alanine Aminotransferase",
      "CHEMISTRY",
      "24",
      "U/L",
      "6",
      "35",
      "24",
      24,
      "U/L",
      6,
      35,
      "NORMAL",
      "",
      10,
      "WEEK 16",
      112,
      "2013-11-06T10:08",
      111
    ],
    [
      "CDISCPILOT01",
      "LB",
      "01-701-1028",
      232,
      "ALT",
      "Alanine Aminotransferase",
      "CHEMISTRY",
      "22",
      "U/L",
      "6",
      "35",
      "22",
      22,
      "U/L",
      6,
      35,
      "NORMAL",
      "",
      11,
      "WEEK 20",
      140,
      "2013-12-04T15:10",
      139
    ],
    [
      "CDISCPILOT01",
      "LB",
      "01-701-1028",
      263,
      "ALT",
      "Alanine Aminotransferase",
      "CHEMISTRY",
      "24",
      "U/L",
      "6",
      "35",
      "24",
      24,
      "U/L",
      6,
      35,
      "NORMAL",
      "",
      12,
      "WEEK 24",
      168,
      "2014-01-06T10:00",
      172
    ],
    [
      "CDISCPILOT01",
      "LB",
      "01-701-1028",
      300,
      "ALT",
      "Alanine Aminotransferase",
      "CHEMISTRY",
      "26",
      "U/L",
      "6",
      "35",
      "26",
      26,
      "U/L",
      6,
      35,
      "NORMAL",
      "",
      13,
      "WEEK 26",
      182,
      "2014-01-14T11:10",
      180
    ],
    [
      "CDISCPILOT01",
      "LB",
      "01-701-1028",
      201,
      "ANISO",
      "Anisocytes",
      "HEMATOLOGY",
      "1",
      "NO UNITS",
      "",
      "",
      "1",
      1,
      "",
      null,
      null,
      "ABNORMAL",
      "",
      10,
      "WEEK 16",
      112,
      "2013-11-06T10:08",
      111
    ],
    [
      "CDISCPILOT01",
      "LB",
      "01-701-1028",
      233,
      "ANISO",
      "Anisocytes",
      "HEMATOLOGY",
      "1",
      "NO UNITS",
      "",
      "",
      "1",
      1,
      "",
      null,
      null,
      "ABNORMAL",
      "",
      11,
      "WEEK 20",
      140,
      "2013-12-04T15:10",
      139
    ],
    [
      "CDISCPILOT01",
      "LB",
      "01-701-1028",
      4,
      "AST",
      "Aspartate Aminotransferase",
      "CHEMISTRY",
      "24",
      "U/L",
      "11",
      "36",
      "24",
      24,
      "U/L",
      11,
      36,
      "NORMAL",
      "Y",
      1,
      "SCREENING 1",
      -7,
      "2013-07-11T12:02",
      -8
    ],
    [
      "CDISCPILOT01",
      "LB",
      "01-701-1028",
      41,
      "AST",
      "Aspartate Aminotransferase",
      "CHEMISTRY",
      "23",
      "U/L",
      "11",
      "36",
      "23",
      23,
      "U/L",
      11,
      36,
      "NORMAL",
      "",
      4,
      "WEEK 2",
      14,
      "2013-08-01T09:15",
      14
    ],
    [
      "CDISCPILOT01",
      "LB",
      "01-701-1028",
      76,
      "AST",
      "Aspartate Aminotransferase",
      "CHEMISTRY",
      "24",
      "U/L",
      "11",
      "36",
      "24",
      24,
      "U/L",
      11,
      36,
      "NORMAL",
      "",
      5,
      "WEEK 4",
      28,
      "2013-08-14T13:24",
      27
    ],
    [
      "CDISCPILOT01",
      "LB",
      "01-701-1028",
      106,
      "AST",
      "Aspartate Aminotransferase",
      "CHEMISTRY",
      "26",
      "U/L",
      "11",
      "36",
      "26",
      26,
      "U/L",
      11,
      36,
      "NORMAL",
      "",
      7,
      "WEEK 6",
      42,
      "2013-08-29T11:54",
      42
    ],
    [
      "CDISCPILOT01",
      "LB",
      "01-701-1028",
      136,
      "AST",
      "Aspartate Aminotransferase",
      "CHEMISTRY",
      "28",
      "U/L",
      "11",
      "36",
      "28",
      28,
      "U/L",
      11,
      36,
      "NORMAL",
      "",
      8,
      "WEEK 8",
      56,
      "2013-09-10T09:13",
      54
    ],
    [
      "CDISCPILOT01",
      "LB",
      "01-701-1028",
      166,
      "AST",
      "Aspartate Aminotransferase",
      "CHEMISTRY",
      "28",
      "U/L",
      "11",
      "36",
      "28",
      28,
      "U/L",
      11,
      36,
      "NORMAL",
      "",
      9,
      "WEEK 12",
      84,
      "2013-10-09T08:42",
      83
    ],
    [
      "CDISCPILOT01",
      "LB",
      "01-701-1028",
      202,
      "AST",
      "Aspartate Aminotransferase",
      "CHEMISTRY",
      "18",
      "U/L",
      "11",
      "36",
      "18",
      18,
      "U/L",
      11,
      36,
      "NORMAL",
      "",
      10,
      "WEEK 16",
      112,
      "2013-11-06T10:08",
      111
    ],
    [
      "CDISCPILOT01",
      "LB",
      "01-701-1028",
      234,
      "AST",
      "Aspartate Aminotransferase",
      "CHEMISTRY",
      "21",
      "U/L",
      "11",
      "36",
      "21",
      21,
      "U/L",
      11,
      36,
      "NORMAL",
      "",
      11,
      "WEEK 20",
      140,
      "2013-12-04T15:10",
      139
    ],
    [
      "CDISCPILOT01",
      "LB",
      "01-701-1028",
      264,
      "AST",
      "Aspartate Aminotransferase",
      "CHEMISTRY",
      "23",
      "U/L",
      "11",
      "36",
      "23",
      23,
      "U/L",
      11,
      36,
      "NORMAL",
      "",
      12,
      "WEEK 24",
      168,
      "2014-01-06T10:00",
      172
    ],
    [
      "CDISCPILOT01",
      "LB",
      "01-701-1028",
      301,
      "AST",
      "Aspartate Aminotransferase",
      "CHEMISTRY",
      "24",
      "U/L",
      "11",
      "36",
      "24",
      24,
      "U/L",
      11,
      36,
      "NORMAL",
      "",
      13,
      "WEEK 26",
      182,
      "2014-01-14T11:10",
      180
    ],
    [
      "CDISCPILOT01",
      "LB",
      "01-701-1028",
      5,
      "BASO",
      "Basophils",
      "HEMATOLOGY",
      "0.06",
      "THOU/uL",
      "0",
      "0.2",
      "0.06",
      0.06,
      "GI/L",
      0,
      0.2,
      "NORMAL",
      "Y",
      1,
      "SCREENING 1",
      -7,
      "2013-07-11T12:02",
      -8
    ],
    [
      "CDISCPILOT01",
      "LB",
      "01-701-1028",
      42,
      "BASO",
      "Basophils",
      "HEMATOLOGY",
      "0.06",
      "THOU/uL",
      "0",
      "0.2",
      "0.06",
      0.06,
      "GI/L",
      0,
      0.2,
      "NORMAL",
      "",
      4,
      "WEEK 2",
      14,
      "2013-08-01T09:15",
      14
    ],
    [
      "CDISCPILOT01",
      "LB",
      "01-701-1028",
      77,
      "BASO",
      "Basophils",
      "HEMATOLOGY",
      "0.04",
      "THOU/uL",
      "0",
      "0.2",
      "0.04",
      0.04,
      "GI/L",
      0,
      0.2,
      "NORMAL",
      "",
      5,
      "WEEK 4",
      28,
      "2013-08-14T13:24",
      27
    ],
    [
      "CDISCPILOT01",
      "LB",
      "01-701-1028",
      107,
      "BASO",
      "Basophils",
      "HEMATOLOGY",
      "0.04",
      "THOU/uL",
      "0",
      "0.2",
      "0.04",
      0.04,
      "GI/L",
      0,
      0.2,
      "NORMAL",
      "",
      7,
      "WEEK 6",
      42,
      "2013-08-29T11:54",
      42
    ],
    [
      "CDISCPILOT01",
      "LB",
      "01-701-1028",
      137,
      "BASO",
      "Basophils",
      "HEMATOLOGY",
      "0.04",
      "THOU/uL",
      "0",
      "0.2",
      "0.04",
      0.04,
      "GI/L",
      0,
      0.2,
      "NORMAL",
      "",
      8,
      "WEEK 8",
      56,
      "2013-09-10T09:13",
      54
    ],
    [
      "CDISCPILOT01",
      "LB",
      "01-701-1028",
      167,
      "BASO",
      "Basophils",
      "HEMATOLOGY",
      "0.07",
      "THOU/uL",
      "0",
      "0.2",
      "0.07",
      0.07,
      "GI/L",
      0,
      0.2,
      "NORMAL",
      "",
      9,
      "WEEK 12",
      84,
      "2013-10-09T08:42",
      83
    ],
    [
      "CDISCPILOT01",
      "LB",
      "01-701-1028",
      203,
      "BASO",
      "Basophils",
      "HEMATOLOGY",
      "0.05",
      "THOU/uL",
      "0",
      "0.2",
      "0.05",
      0.05,
      "GI/L",
      0,
      0.2,
      "NORMAL",
      "",
      10,
      "WEEK 16",
      112,
      "2013-11-06T10:08",
      111
    ],
    [
      "CDISCPILOT01",
      "LB",
      "01-701-1028",
      235,
      "BASO",
      "Basophils",
      "HEMATOLOGY",
      "0.06",
      "THOU/uL",
      "0",
      "0.2",
      "0.06",
      0.06,
      "GI/L",
      0,
      0.2,
      "NORMAL",
      "",
      11,
      "WEEK 20",
      140,
      "2013-12-04T15:10",
      139
    ],
    [
      "CDISCPILOT01",
      "LB",
      "01-701-1028",
      265,
      "BASO",
      "Basophils",
      "HEMATOLOGY",
      "0.04",
      "THOU/uL",
      "0",
      "0.2",
      "0.04",
      0.04,
      "GI/L",
      0,
      0.2,
      "NORMAL",
      "",
      12,
      "WEEK 24",
      168,
      "2014-01-06T10:00",
      172
    ],
    [
      "CDISCPILOT01",
      "LB",
      "01-701-1028",
      302,
      "BASO",
      "Basophils",
      "HEMATOLOGY",
      "0.06",
      "THOU/uL",
      "0",
      "0.2",
      "0.06",
      0.06,
      "GI/L",
      0,
      0.2,
      "NORMAL",
      "",
      13,
      "WEEK 26",
      182,
      "2014-01-14T11:10",
      180
    ],
    [
      "CDISCPILOT01",
      "LB",
      "01-701-1028",
      6,
      "BILI",
      "Bilirubin",
      "CHEMISTRY",
      "1.1",
      "mg/dL",
      "0.2",
      "1.2",
      "18.81",
      18.81,
      "umol/L",
      3,
      21,
      "NORMAL",
      "Y",
      1,
      "SCREENING 1",
      -7,
      "2013-07-11T12:02",
      -8
    ],
    [
      "CDISCPILOT01",
      "LB",
      "01-701-1028",
      43,
      "BILI",
      "Bilirubin",
      "CHEMISTRY",
      "0.7",
      "mg/dL",
      "0.2",
      "1.2",
      "11.97",
      11.97,
      "umol/L",
      3,
      21,
      "NORMAL",
      "",
      4,
      "WEEK 2",
      14,
      "2013-08-01T09:15",
      14
    ],
    [
      "CDISCPILOT01",
      "LB",
      "01-701-1028",
      78,
      "BILI",
      "Bilirubin",
      "CHEMISTRY",
      "0.8",
      "mg/dL",
      "0.2",
      "1.2",
      "13.68",
      13.68,
      "umol/L",
      3,
      21,
      "NORMAL",
      "",
      5,
      "WEEK 4",
      28,
      "2013-08-14T13:24",
      27
    ],
    [
      "CDISCPILOT01",
      "LB",
      "01-701-1028",
      108,
      "BILI",
      "Bilirubin",
      "CHEMISTRY",
      "0.7",
      "mg/dL",
      "0.2",
      "1.2",
      "11.97",
      11.97,
      "umol/L",
      3,
      21,
      "NORMAL",
      "",
      7,
      "WEEK 6",
      42,
      "2013-08-29T11:54",
      42
    ],
    [
      "CDISCPILOT01",
      "LB",
      "01-701-1028",
      138,
      "BILI",
      "Bilirubin",
      "CHEMISTRY",
      "0.8",
      "mg/dL",
      "0.2",
      "1.2",
      "13.68",
      13.68,
      "umol/L",
      3,
      21,
      "NORMAL",
      "",
      8,
      "WEEK 8",
      56,
      "2013-09-10T09:13",
      54
    ],
    [
      "CDISCPILOT01",
      "LB",
      "01-701-1028",
      168,
      "BILI",
      "Bilirubin",
      "CHEMISTRY",
      "0.8",
      "mg/dL",
      "0.2",
      "1.2",
      "13.68",
      13.68,
      "umol/L",
      3,
      21,
      "NORMAL",
      "",
      9,
      "WEEK 12",
      84,
      "2013-10-09T08:42",
      83
    ],
    [
      "CDISCPILOT01",
      "LB",
      "01-701-1028",
      204,
      "BILI",
      "Bilirubin",
      "CHEMISTRY",
      "0.7",
      "mg/dL",
      "0.2",
      "1.2",
      "11.97",
      11.97,
      "umol/L",
      3,
      21,
      "NORMAL",
      "",
      10,
      "WEEK 16",
      112,
      "2013-11-06T10:08",
      111
    ],
    [
      "CDISCPILOT01",
      "LB",
      "01-701-1028",
      236,
      "BILI",
      "Bilirubin",
      "CHEMISTRY",
      "0.8",
      "mg/dL",
      "0.2",
      "1.2",
      "13.68",
      13.68,
      "umol/L",
      3,
      21,
      "NORMAL",
      "",
      11,
      "WEEK 20",
      140,
      "2013-12-04T15:10",
      139
    ],
    [
      "CDISCPILOT01",
      "LB",
      "01-701-1028",
      266,
      "BILI",
      "Bilirubin",
      "CHEMISTRY",
      "0.9",
      "mg/dL",
      "0.2",
      "1.2",
      "15.39",
      15.39,
      "umol/L",
      3,
      21,
      "NORMAL",
      "",
      12,
      "WEEK 24",
      168,
      "2014-01-06T10:00",
      172
    ],
    [
      "CDISCPILOT01",
      "LB",
      "01-701-1028",
      303,
      "BILI",
      "Bilirubin",
      "CHEMISTRY",
      "0.8",
      "mg/dL",
      "0.2",
      "1.2",
      "13.68",
      13.68,
      "umol/L",
      3,
      21,
      "NORMAL",
      "",
      13,
      "WEEK 26",
      182,
      "2014-01-14T11:10",
      180
    ],
    [
      "CDISCPILOT01",
      "LB",
      "01-701-1028",
      7,
      "BUN",
      "Blood Urea Nitrogen",
      "CHEMISTRY",
      "12",
      "mg/dL",
      "4",
      "24",
      "4.284",
      4.284,
      "mmol/L",
      1.4,
      8.6,
      "NORMAL",
      "Y",
      1,
      "SCREENING 1",
      -7,
      "2013-07-11T12:02",
      -8
    ],
    [
      "CDISCPILOT01",
      "LB",
      "01-701-1028",
      44,
      "BUN",
      "Blood Urea Nitrogen",
      "CHEMISTRY",
      "16",
      "mg/dL",
      "4",
      "24",
      "5.712",
      5.712,
      "mmol/L",
      1.4,
      8.6,
      "NORMAL",
      "",
      4,
      "WEEK 2",
      14,
      "2013-08-01T09:15",
      14
    ],
    [
      "CDISCPILOT01",
      "LB",
      "01-701-1028",
      79,
      "BUN",
      "Blood Urea Nitrogen",
      "CHEMISTRY",
      "18",
      "mg/dL",
      "4",
      "24",
      "6.426",
      6.426,
      "mmol/L",
      1.4,
      8.6,
      "NORMAL",
      "",
      5,
      "WEEK 4",
      28,
      "2013-08-14T13:24",
      27
    ],
    [
      "CDISCPILOT01",
      "LB",
      "01-701-1028",
      109,
      "BUN",
      "Blood Urea Nitrogen",
      "CHEMISTRY",
      "15",
      "mg/dL",
      "4",
      "24",
      "5.355",
      5.355,
      "mmol/L",
      1.4,
      8.6,
      "NORMAL",
      "",
      7,
      "WEEK 6",
      42,
      "2013-08-29T11:54",
      42
    ],
    [
      "CDISCPILOT01",
      "LB",
      "01-701-1028",
      139,
      "BUN",
      "Blood Urea Nitrogen",
      "CHEMISTRY",
      "18",
      "mg/dL",
      "4",
      "24",
      "6.426",
      6.426,
      "mmol/L",
      1.4,
      8.6,
      "NORMAL",
      "",
      8,
      "WEEK 8",
      56,
      "2013-09-10T09:13",
      54
    ],
    [
      "CDISCPILOT01",
      "LB",
      "01-701-1028",
      169,
      "BUN",
      "Blood Urea Nitrogen",
      "CHEMISTRY",
      "17",
      "mg/dL",
      "4",
      "24",
      "6.069",
      6.069,
      "mmol/L",
      1.4,
      8.6,
      "NORMAL",
      "",
      9,
      "WEEK 12",
      84,
      "2013-10-09T08:42",
      83
    ],
    [
      "CDISCPILOT01",
      "LB",
      "01-701-1028",
      205,
      "BUN",
      "Blood Urea Nitrogen",
      "CHEMISTRY",
      "15",
      "mg/dL",
      "4",
      "24",
      "5.355",
      5.355,
      "mmol/L",
      1.4,
      8.6,
      "NORMAL",
      "",
      10,
      "WEEK 16",
      112,
      "2013-11-06T10:08",
      111
    ],
    [
      "CDISCPILOT01",
      "LB",
      "01-701-1028",
      237,
      "BUN",
      "Blood Urea Nitrogen",
      "CHEMISTRY",
      "15",
      "mg/dL",
      "4",
      "24",
      "5.355",
      5.355,
      "mmol/L",
      1.4,
      8.6,
      "NORMAL",
      "",
      11,
      "WEEK 20",
      140,
      "2013-12-04T15:10",
      139
    ],
    [
      "CDISCPILOT01",
      "LB",
      "01-701-1028",
      267,
      "BUN",
      "Blood Urea Nitrogen",
      "CHEMISTRY",
      "13",
      "mg/dL",
      "4",
      "24",
      "4.641",
      4.641,
      "mmol/L",
      1.4,
      8.6,
      "NORMAL",
      "",
      12,
      "WEEK 24",
      168,
      "2014-01-06T10:00",
      172
    ],
    [
      "CDISCPILOT01",
      "LB",
      "01-701-1028",
      304,
      "BUN",
      "Blood Urea Nitrogen",
      "CHEMISTRY",
      "17",
      "mg/dL",
      "4",
      "24",
      "6.069",
      6.069,
      "mmol/L",
      1.4,
      8.6,
      "NORMAL",
      "",
      13,
      "WEEK 26",
      182,
      "2014-01-14T11:10",
      180
    ],
    [
      "CDISCPILOT01",
      "LB",
      "01-701-1028",
      8,
      "CA",
      "Calcium",
      "CHEMISTRY",
      "9.2",
      "mg/dL",
      "8.4",
      "10.3",
      "2.2954",
      2.2954,
      "mmol/L",
      2.1,
      2.57,
      "NORMAL",
      "Y",
      1,
      "SCREENING 1",
      -7,
      "2013-07-11T12:02",
      -8
    ],
    [
      "CDISCPILOT01",
      "LB",
      "01-701-1028",
      45,
      "CA",
      "Calcium",
      "CHEMISTRY",
      "8.9",
      "mg/dL",
      "8.4",
      "10.3",
      "2.22055",
      2.22055,
      "mmol/L",
      2.1,
      2.57,
      "NORMAL",
      "",
      4,
      "WEEK 2",
      14,
      "2013-08-01T09:15",
      14
    ],
    [
      "CDISCPILOT01",
      "LB",
      "01-701-1028",
      80,
      "CA",
      "Calcium",
      "CHEMISTRY",
      "8.7",
      "mg/dL",
      "8.4",
      "10.3",
      "2.17065",
      2.17065,
      "mmol/L",
      2.1,
      2.57,
      "NORMAL",
      "",
      5,
      "WEEK 4",
      28,
      "2013-08-14T13:24",
      27
    ],
    [
      "CDISCPILOT01",
      "LB",
      "01-701-1028",
      110,
      "CA",
      "Calcium",
      "CHEMISTRY",
      "8.8",
      "mg/dL",
      "8.4",
      "10.3",
      "2.1956",
      2.1956,
      "mmol/L",
      2.1,
      2.57,
      "NORMAL",
      "",
      7,
      "WEEK 6",
      42,
      "2013-08-29T11:54",
      42
    ],
    [
      "CDISCPILOT01",
      "LB",
      "01-701-1028",
      140,
      "CA",
      "Calcium",
      "CHEMISTRY",
      "8.6",
      "mg/dL",
      "8.4",
      "10.3",
      "2.1457",
      2.1457,
      "mmol/L",
      2.1,
      2.57,
      "NORMAL",
      "",
      8,
      "WEEK 8",
      56,
      "2013-09-10T09:13",
      54
    ],
    [
      "CDISCPILOT01",
      "LB",
      "01-701-1028",
      170,
      "CA",
      "Calcium",
      "CHEMISTRY",
      "8.9",
      "mg/dL",
      "8.4",
      "10.3",
      "2.22055",
      2.22055,
      "mmol/L",
      2.1,
      2.57,
      "NORMAL",
      "",
      9,
      "WEEK 12",
      84,
      "2013-10-09T08:42",
      83
    ],
    [
      "CDISCPILOT01",
      "LB",
      "01-701-1028",
      206,
      "CA",
      "Calcium",
      "CHEMISTRY",
      "8.0",
      "mg/dL",
      "8.4",
      "10.3",
      "1.996",
      1.996,
      "mmol/L",
      2.1,
      2.57,
      "LOW",
      "",
      10,
      "WEEK 16",
      112,
      "2013-11-06T10:08",
      111
    ],
    [
      "CDISCPILOT01",
      "LB",
      "01-701-1028",
      238,
      "CA",
      "Calcium",
      "CHEMISTRY",
      "8.5",
      "mg/dL",
      "8.4",
      "10.3",
      "2.12075",
      2.12075,
      "mmol/L",
      2.1,
      2.57,
      "NORMAL",
      "",
      11,
      "WEEK 20",
      140,
      "2013-12-04T15:10",
      139
    ],
    [
      "CDISCPILOT01",
      "LB",
      "01-701-1028",
      268,
      "CA",
      "Calcium",
      "CHEMISTRY",
      "8.4",
      "mg/dL",
      "8.4",
      "10.3",
      "2.0958",
      2.0958,
      "mmol/L",
      2.1,
      2.57,
      "NORMAL",
      "",
      12,
      "WEEK 24",
      168,
      "2014-01-06T10:00",
      172
    ],
    [
      "CDISCPILOT01",
      "LB",
      "01-701-1028",
      305,
      "CA",
      "Calcium",
      "CHEMISTRY",
      "8.9",
      "mg/dL",
      "8.4",
      "10.3",
      "2.22055",
      2.22055,
      "mmol/L",
      2.1,
      2.57,
      "NORMAL",
      "",
      13,
      "WEEK 26",
      182,
      "2014-01-14T11:10",
      180
    ],
    [
      "CDISCPILOT01",
      "LB",
      "01-701-1028",
      9,
      "CHOL",
      "Cholesterol",
      "CHEMISTRY",
      "186",
      "mg/dL",
      "149",
      "286",
      "4.80996",
      4.80996,
      "mmol/L",
      3.85,
      7.4,
      "NORMAL",
      "Y",
      1,
      "SCREENING 1",
      -7,
      "2013-07-11T12:02",
      -8
    ],
    [
      "CDISCPILOT01",
      "LB",
      "01-701-1028",
      46,
      "CHOL",
      "Cholesterol",
      "CHEMISTRY",
      "182",
      "mg/dL",
      "149",
      "286",
      "4.70652",
      4.70652,
      "mmol/L",
      3.85,
      7.4,
      "NORMAL",
      "",
      4,
      "WEEK 2",
      14,
      "2013-08-01T09:15",
      14
    ],
    [
      "CDISCPILOT01",
      "LB",
      "01-701-1028",
      81,
      "CHOL",
      "Cholesterol",
      "CHEMISTRY",
      "169",
      "mg/dL",
      "149",
      "286",
      "4.37034",
      4.37034,
      "mmol/L",
      3.85,
      7.4,
      "NORMAL",
      "",
      5,
      "WEEK 4",
      28,
      "2013-08-14T13:24",
      27
    ],
    [
      "CDISCPILOT01",
      "LB",
      "01-701-1028",
      111,
      "CHOL",
      "Cholesterol",
      "CHEMISTRY",
      "165",
      "mg/dL",
      "149",
      "286",
      "4.2669",
      4.2669,
      "mmol/L",
      3.85,
      7.4,
      "NORMAL",
      "",
      7,
      "WEEK 6",
      42,
      "2013-08-29T11:54",
      42
    ],
    [
      "CDISCPILOT01",
      "LB",
      "01-701-1028",
      141,
      "CHOL",
      "Cholesterol",
      "CHEMISTRY",
      "171",
      "mg/dL",
      "149",
      "286",
      "4.42206",
      4.42206,
      "mmol/L",
      3.85,
      7.4,
      "NORMAL",
      "",
      8,
      "WEEK 8",
      56,
      "2013-09-10T09:13",
      54
    ],
    [
      "CDISCPILOT01",
      "LB",
      "01-701-1028",
      171,
      "CHOL",
      "Cholesterol",
      "CHEMISTRY",
      "196",
      "mg/dL",
      "149",
      "286",
      "5.06856",
      5.06856,
      "mmol/L",
      3.85,
      7.4,
      "NORMAL",
      "",
      9,
      "WEEK 12",
      84,
      "2013-10-09T08:42",
      83
    ],
    [
      "CDISCPILOT01",
      "LB",
      "01-701-1028",
      207,
      "CHOL",
      "Cholesterol",
      "CHEMISTRY",
      "152",
      "mg/dL",
      "149",
      "286",
      "3.93072",
      3.93072,
      "mmol/L",
      3.85,
      7.4,
      "NORMAL",
      "",
      10,
      "WEEK 16",
      112,
      "2013-11-06T10:08",
      111
    ],
    [
      "CDISCPILOT01",
      "LB",
      "01-701-1028",
      239,
      "CHOL",
      "Cholesterol",
      "CHEMISTRY",
      "170",
      "mg/dL",
      "149",
      "286",
      "4.3962",
      4.3962,
      "mmol/L",
      3.85,
      7.4,
      "NORMAL",
      "",
      11,
      "WEEK 20",
      140,
      "2013-12-04T15:10",
      139
    ],
    [
      "CDISCPILOT01",
      "LB",
      "01-701-1028",
      269,
      "CHOL",
      "Cholesterol",
      "CHEMISTRY",
      "164",
      "mg/dL",
      "149",
      "286",
      "4.24104",
      4.24104,
      "mmol/L",
      3.85,
      7.4,
      "NORMAL",
      "",
      12,
      "WEEK 24",
      168,
      "2014-01-06T10:00",
      172
    ],
    [
      "CDISCPILOT01",
      "LB",
      "01-701-1028",
      306,
      "CHOL",
      "Cholesterol",
      "CHEMISTRY",
      "181",
      "mg/dL",
      "149",
      "286",
      "4.68066",
      4.68066,
      "mmol/L",
      3.85,
      7.4,
      "NORMAL",
      "",
      13,
      "WEEK 26",
      182,
      "2014-01-14T11:10",
      180
    ],
    [
      "CDISCPILOT01",
      "LB",
      "01-701-1028",
      10,
      "CK",
      "Creatine Kinase",
      "CHEMISTRY",
      "144",
      "U/L",
      "22",
      "198",
      "144",
      144,
      "U/L",
      22,
      198,
      "NORMAL",
      "Y",
      1,
      "SCREENING 1",
      -7,
      "2013-07-11T12:02",
      -8
    ],
    [
      "CDISCPILOT01",
      "LB",
      "01-701-1028",
      47,
      "CK",
      "Creatine Kinase",
      "CHEMISTRY",
      "160",
      "U/L",
      "22",
      "198",
      "160",
      160,
      "U/L",
      22,
      198,
      "NORMAL",
      "",
      4,
      "WEEK 2",
      14,
      "2013-08-01T09:15",
      14
    ],
    [
      "CDISCPILOT01",
      "LB",
      "01-701-1028",
      82,
      "CK",
      "Creatine Kinase",
      "CHEMISTRY",
      "176",
      "U/L",
      "22",
      "198",
      "176",
      176,
      "U/L",
      22,
      198,
      "NORMAL",
      "",
      5,
      "WEEK 4",
      28,
      "2013-08-14T13:24",
      27
    ],
    [
      "CDISCPILOT01",
      "LB",
      "01-701-1028",
      112,
      "CK",
      "Creatine Kinase",
      "CHEMISTRY",
      "186",
      "U/L",
      "22",
      "198",
      "186",
      186,
      "U/L",
      22,
      198,
      "NORMAL",
      "",
      7,
      "WEEK 6",
      42,
      "2013-08-29T11:54",
      42
    ],
    [
      "CDISCPILOT01",
      "LB",
      "01-701-1028",
      142,
      "CK",
      "Creatine Kinase",
      "CHEMISTRY",
      "317",
      "U/L",
      "22",
      "198",
      "317",
      317,
      "U/L",
      22,
      198,
      "HIGH",
      "",
      8,
      "WEEK 8",
      56,
      "2013-09-10T09:13",
      54
    ],
    [
      "CDISCPILOT01",
      "LB",
      "01-701-1028",
      172,
      "CK",
      "Creatine Kinase",
      "CHEMISTRY",
      "127",
      "U/L",
      "22",
      "198",
      "127",
      127,
      "U/L",
      22,
      198,
      "NORMAL",
      "",
      9,
      "WEEK 12",
      84,
      "2013-10-09T08:42",
      83
    ],
    [
      "CDISCPILOT01",
      "LB",
      "01-701-1028",
      208,
      "CK",
      "Creatine Kinase",
      "CHEMISTRY",
      "103",
      "U/L",
      "22",
      "198",
      "103",
      103,
      "U/L",
      22,
      198,
      "NORMAL",
      "",
      10,
      "WEEK 16",
      112,
      "2013-11-06T10:08",
      111
    ],
    [
      "CDISCPILOT01",
      "LB",
      "01-701-1028",
      240,
      "CK",
      "Creatine Kinase",
      "CHEMISTRY",
      "161",
      "U/L",
      "22",
      "198",
      "161",
      161,
      "U/L",
      22,
      198,
      "NORMAL",
      "",
      11,
      "WEEK 20",
      140,
      "2013-12-04T15:10",
      139
    ],
    [
      "CDISCPILOT01",
      "LB",
      "01-701-1028",
      270,
      "CK",
      "Creatine Kinase",
      "CHEMISTRY",
      "160",
      "U/L",
      "22",
      "198",
      "160",
      160,
      "U/L",
      22,
      198,
      "NORMAL",
      "",
      12,
      "WEEK 24",
      168,
      "2014-01-06T10:00",
      172
    ],
    [
      "CDISCPILOT01",
      "LB",
      "01-701-1028",
      307,
      "CK",
      "Creatine Kinase",
      "CHEMISTRY",
      "130",
      "U/L",
      "22",
      "198",
      "130",
      130,
      "U/L",
      22,
      198,
      "NORMAL",
      "",
      13,
      "WEEK 26",
      182,
      "2014-01-14T11:10",
      180
    ],
    [
      "CDISCPILOT01",
      "LB",
      "01-701-1028",
      11,
      "CL",
      "Chloride",
      "CHEMISTRY",
      "103",
      "mEq/L",
      "94",
      "112",
      "103",
      103,
      "mmol/L",
      94,
      112,
      "NORMAL",
      "Y",
      1,
      "SCREENING 1",
      -7,
      "2013-07-11T12:02",
      -8
    ],
    [
      "CDISCPILOT01",
      "LB",
      "01-701-1028",
      48,
      "CL",
      "Chloride",
      "CHEMISTRY",
      "103",
      "mEq/L",
      "94",
      "112",
      "103",
      103,
      "mmol/L",
      94,
      112,
      "NORMAL",
      "",
      4,
      "WEEK 2",
      14,
      "2013-08-01T09:15",
      14
    ],
    [
      "CDISCPILOT01",
      "LB",
      "01-701-1028",
      83,
      "CL",
      "Chloride",
      "CHEMISTRY",
      "111",
      "mEq/L",
      "94",
      "112",
      "111",
      111,
      "mmol/L",
      94,
      112,
      "NORMAL",
      "",
      5,
      "WEEK 4",
      28,
      "2013-08-14T13:24",
      27
    ],
    [
      "CDISCPILOT01",
      "LB",
      "01-701-1028",
      113,
      "CL",
      "Chloride",
      "CHEMISTRY",
      "107",
      "mEq/L",
      "94",
      "112",
      "107",
      107,
      "mmol/L",
      94,
      112,
      "NORMAL",
      "",
      7,
      "WEEK 6",
      42,
      "2013-08-29T11:54",
      42
    ],
    [
      "CDISCPILOT01",
      "LB",
      "01-701-1028",
      143,
      "CL",
      "Chloride",
      "CHEMISTRY",
      "105",
      "mEq/L",
      "94",
      "112",
      "105",
      105,
      "mmol/L",
      94,
      112,
      "NORMAL",
      "",
      8,
      "WEEK 8",
      56,
      "2013-09-10T09:13",
      54
    ],
    [
      "CDISCPILOT01",
      "LB",
      "01-701-1028",
      173,
      "CL",
      "Chloride",
      "CHEMISTRY",
      "105",
      "mEq/L",
      "94",
      "112",
      "105",
      105,
      "mmol/L",
      94,
      112,
      "NORMAL",
      "",
      9,
      "WEEK 12",
      84,
      "2013-10-09T08:42",
      83
    ],
    [
      "CDISCPILOT01",
      "LB",
      "01-701-1028",
      209,
      "CL",
      "Chloride",
      "CHEMISTRY",
      "108",
      "mEq/L",
      "94",
      "112",
      "108",
      108,
      "mmol/L",
      94,
      112,
      "NORMAL",
      "",
      10,
      "WEEK 16",
      112,
      "2013-11-06T10:08",
      111
    ],
    [
      "CDISCPILOT01",
      "LB",
      "01-701-1028",
      241,
      "CL",
      "Chloride",
      "CHEMISTRY",
      "105",
      "mEq/L",
      "94",
      "112",
      "105",
      105,
      "mmol/L",
      94,
      112,
      "NORMAL",
      "",
      11,
      "WEEK 20",
      140,
      "2013-12-04T15:10",
      139
    ],
    [
      "CDISCPILOT01",
      "LB",
      "01-701-1028",
      271,
      "CL",
      "Chloride",
      "CHEMISTRY",
      "107",
      "mEq/L",
      "94",
      "112",
      "107",
      107,
      "mmol/L",
      94,
      112,
      "NORMAL",
      "",
      12,
      "WEEK 24",
      168,
      "2014-01-06T10:00",
      172
    ],
    [
      "CDISCPILOT01",
      "LB",
      "01-701-1028",
      308,
      "CL",
      "Chloride",
      "CHEMISTRY",
      "103",
      "mEq/L",
      "94",
      "112",
      "103",
      103,
      "mmol/L",
      94,
      112,
      "NORMAL",
      "",
      13,
      "WEEK 26",
      182,
      "2014-01-14T11:10",
      180
    ],
    [
      "CDISCPILOT01",
      "LB",
      "01-701-1028",
      12,
      "COLOR",
      "Color",
      "URINALYSIS",
      "N",
      "NO UNITS",
      "",
      "",
      "N",
      null,
      "",
      null,
      null,
      "NORMAL",
      "Y",
      1,
      "SCREENING 1",
      -7,
      "2013-07-11T12:02",
      -8
    ],
    [
      "CDISCPILOT01",
      "LB",
      "01-701-1028",
      49,
      "COLOR",
      "Color",
      "URINALYSIS",
      "N",
      "NO UNITS",
      "",
      "",
      "N",
      null,
      "",
      null,
      null,
      "NORMAL",
      "",
      4,
      "WEEK 2",
      14,
      "2013-08-01T09:15",
      14
    ],
    [
      "CDISCPILOT01",
      "LB",
      "01-701-1028",
      174,
      "COLOR",
      "Color",
      "URINALYSIS",
      "N",
      "NO UNITS",
      "",
      "",
      "N",
      null,
      "",
      null,
      null,
      "NORMAL",
      "",
      9,
      "WEEK 12",
      84,
      "2013-10-09T08:42",
      83
    ],
    [
      "CDISCPILOT01",
      "LB",
      "01-701-1028",
      272,
      "COLOR",
      "Color",
      "URINALYSIS",
      "N",
      "NO UNITS",
      "",
      "",
      "N",
      null,
      "",
      null,
      null,
      "NORMAL",
      "",
      12,
      "WEEK 24",
      168,
      "2014-01-06T10:00",
      172
    ],
    [
      "CDISCPILOT01",
      "LB",
      "01-701-1028",
      13,
      "CREAT",
      "Creatinine",
      "CHEMISTRY",
      "1.4",
      "mg/dL",
      "0.8",
      "1.6",
      "123.76",
      123.76,
      "umol/L",
      71,
      141,
      "NORMAL",
      "Y",
      1,
      "SCREENING 1",
      -7,
      "2013-07-11T12:02",
      -8
    ],
    [
      "CDISCPILOT01",
      "LB",
      "01-701-1028",
      50,
      "CREAT",
      "Creatinine",
      "CHEMISTRY",
      "1.5",
      "mg/dL",
      "0.8",
      "1.6",
      "132.6",
      132.6,
      "umol/L",
      71,
      141,
      "NORMAL",
      "",
      4,
      "WEEK 2",
      14,
      "2013-08-01T09:15",
      14
    ],
    [
      "CDISCPILOT01",
      "LB",
      "01-701-1028",
      84,
      "CREAT",
      "Creatinine",
      "CHEMISTRY",
      "1.6",
      "mg/dL",
      "0.8",
      "1.6",
      "141.44",
      141.44,
      "umol/L",
      71,
      141,
      "NORMAL",
      "",
      5,
      "WEEK 4",
      28,
      "2013-08-14T13:24",
      27
    ],
    [
      "CDISCPILOT01",
      "LB",
      "01-701-1028",
      114,
      "CREAT",
      "Creatinine",
      "CHEMISTRY",
      "1.4",
      "mg/dL",
      "0.8",
      "1.6",
      "123.76",
      123.76,
      "umol/L",
      71,
      141,
      "NORMAL",
      "",
      7,
      "WEEK 6",
      42,
      "2013-08-29T11:54",
      42
    ],
    [
      "CDISCPILOT01",
      "LB",
      "01-701-1028",
      144,
      "CREAT",
      "Creatinine",
      "CHEMISTRY",
      "1.5",
      "mg/dL",
      "0.8",
      "1.6",
      "132.6",
      132.6,
      "umol/L",
      71,
      141,
      "NORMAL",
      "",
      8,
      "WEEK 8",
      56,
      "2013-09-10T09:13",
      54
    ],
    [
      "CDISCPILOT01",
      "LB",
      "01-701-1028",
      175,
      "CREAT",
      "Creatinine",
      "CHEMISTRY",
      "1.5",
      "mg/dL",
      "0.8",
      "1.6",
      "132.6",
      132.6,
      "umol/L",
      71,
      141,
      "NORMAL",
      "",
      9,
      "WEEK 12",
      84,
      "2013-10-09T08:42",
      83
    ],
    [
      "CDISCPILOT01",
      "LB",
      "01-701-1028",
      210,
      "CREAT",
      "Creatinine",
      "CHEMISTRY",
      "1.3",
      "mg/dL",
      "0.8",
      "1.6",
      "114.92",
      114.92,
      "umol/L",
      71,
      141,
      "NORMAL",
      "",
      10,
      "WEEK 16",
      112,
      "2013-11-06T10:08",
      111
    ],
    [
      "CDISCPILOT01",
      "LB",
      "01-701-1028",
      242,
      "CREAT",
      "Creatinine",
      "CHEMISTRY",
      "1.4",
      "mg/dL",
      "0.8",
      "1.6",
      "123.76",
      123.76,
      "umol/L",
      71,
      141,
      "NORMAL",
      "",
      11,
      "WEEK 20",
      140,
      "2013-12-04T15:10",
      139
    ],
    [
      "CDISCPILOT01",
      "LB",
      "01-701-1028",
      273,
      "CREAT",
      "Creatinine",
      "CHEMISTRY",
      "1.5",
      "mg/dL",
      "0.8",
      "1.6",
      "132.6",
      132.6,
      "umol/L",
      71,
      141,
      "NORMAL",
      "",
      12,
      "WEEK 24",
      168,
      "2014-01-06T10:00",
      172
    ],
    [
      "CDISCPILOT01",
      "LB",
      "01-701-1028",
      309,
      "CREAT",
      "Creatinine",
      "CHEMISTRY",
      "1.5",
      "mg/dL",
      "0.8",
      "1.6",
      "132.6",
      132.6,
      "umol/L",
      71,
      141,
      "NORMAL",
      "",
      13,
      "WEEK 26",
      182,
      "2014-01-14T11:10",
      180
    ],
    [
      "CDISCPILOT01",
      "LB",
      "01-701-1028",
      14,
      "EOS",
      "Eosinophils",
      "HEMATOLOGY",
      "0.12",
      "THOU/uL",
      "0",
      "0.57",
      "0.12",
      0.12,
      "GI/L",
      0,
      0.57,
      "NORMAL",
      "Y",
      1,
      "SCREENING 1",
      -7,
      "2013-07-11T12:02",
      -8
    ],
    [
      "CDISCPILOT01",
      "LB",
      "01-701-1028",
      51,
      "EOS",
      "Eosinophils",
      "HEMATOLOGY",
      "0.28",
      "THOU/uL",
      "0",
      "0.57",
      "0.28",
      0.28,
      "GI/L",
      0,
      0.57,
      "NORMAL",
      "",
      4,
      "WEEK 2",
      14,
      "2013-08-01T09:15",
      14
    ],
    [
      "CDISCPILOT01",
      "LB",
      "01-701-1028",
      85,
      "EOS",
      "Eosinophils",
      "HEMATOLOGY",
      "0.21",
      "THOU/uL",
      "0",
      "0.57",
      "0.21",
      0.21,
      "GI/L",
      0,
      0.57,
      "NORMAL",
      "",
      5,
      "WEEK 4",
      28,
      "2013-08-14T13:24",
      27
    ],
    [
      "CDISCPILOT01",
      "LB",
      "01-701-1028",
      115,
      "EOS",
      "Eosinophils",
      "HEMATOLOGY",
      "0.17",
      "THOU/uL",
      "0",
      "0.57",
      "0.17",
      0.17,
      "GI/L",
      0,
      0.57,
      "NORMAL",
      "",
      7,
      "WEEK 6",
      42,
      "2013-08-29T11:54",
      42
    ],
    [
      "CDISCPILOT01",
      "LB",
      "01-701-1028",
      145,
      "EOS",
      "Eosinophils",
      "HEMATOLOGY",
      "0.26",
      "THOU/uL",
      "0",
      "0.57",
      "0.26",
      0.26,
      "GI/L",
      0,
      0.57,
      "NORMAL",
      "",
      8,
      "WEEK 8",
      56,
      "2013-09-10T09:13",
      54
    ],
    [
      "CDISCPILOT01",
      "LB",
      "01-701-1028",
      176,
      "EOS",
      "Eosinophils",
      "HEMATOLOGY",
      "0.17",
      "THOU/uL",
      "0",
      "0.57",
      "0.17",
      0.17,
      "GI/L",
      0,
      0.57,
      "NORMAL",
      "",
      9,
      "WEEK 12",
      84,
      "2013-10-09T08:42",
      83
    ],
    [
      "CDISCPILOT01",
      "LB",
      "01-701-1028",
      211,
      "EOS",
      "Eosinophils",
      "HEMATOLOGY",
      "0.18",
      "THOU/uL",
      "0",
      "0.57",
      "0.18",
      0.18,
      "GI/L",
      0,
      0.57,
      "NORMAL",
      "",
      10,
      "WEEK 16",
      112,
      "2013-11-06T10:08",
      111
    ],
    [
      "CDISCPILOT01",
      "LB",
      "01-701-1028",
      243,
      "EOS",
      "Eosinophils",
      "HEMATOLOGY",
      "0.19",
      "THOU/uL",
      "0",
      "0.57",
      "0.19",
      0.19,
      "GI/L",
      0,
      0.57,
      "NORMAL",
      "",
      11,
      "WEEK 20",
      140,
      "2013-12-04T15:10",
      139
    ],
    [
